Time dt accelX accelY accelZ omegaX omegaY omegaZ
1534367450.95000195503234863281 1534367450.95000195503234863281 -0.0066121821291744709014892578125 0.009362905286252498626708984375 -0.1028141677379608154296875 0.000792218896094709634780883789062 -0.000488407560624182224273681640625 -0.00134418846573680639266967773438
1534367451.00001096725463867188 0.0500090122222900390625 -0.0224716924130916595458984375 -0.0305577851831912994384765625 -0.086648769676685333251953125 0.000264789472566917538642883300781 -0.00114007783122360706329345703125 -0.000805517483968287706375122070312
1534367451.05000209808349609375 0.049991130828857421875 -0.02794380299746990203857421875 -0.02865666337311267852783203125 -0.087795235216617584228515625 0.000222020011278800666332244873047 -0.00135912117548286914825439453125 -0.000102026031527202576398849487305
1534367451.10000491142272949219 0.0500028133392333984375 -0.0240013264119625091552734375 -0.007206429727375507354736328125 -0.08030737936496734619140625 0.000179357273736968636512756347656 0.000257821608101949095726013183594 0.000230573365115560591220855712891
1534367451.15011000633239746094 0.05010509490966796875 -0.02019664831459522247314453125 0.02043069899082183837890625 -0.08502368628978729248046875 -0.000845429312903434038162231445312 0.000875818834174424409866333007812 4.68716680188663303852081298828e-05
1534367451.20000290870666503906 0.049892902374267578125 -0.00755665637552738189697265625 0.0384349711239337921142578125 -0.07450695335865020751953125 0.000368685723515227437019348144531 0.00101316149812191724777221679688 1.80879251274745911359786987305e-05
1534367451.25001692771911621094 0.050014019012451171875 0.0022782036103308200836181640625 -0.00189393723849207162857055664062 -0.0975852310657501220703125 -0.000566215428989380598068237304688 0.000382635480491444468498229980469 -0.00140462454874068498611450195312
1534367451.30000400543212890625 0.0499870777130126953125 -0.0341853201389312744140625 -0.033862940967082977294921875 -0.07785499095916748046875 -0.00119188812095671892166137695312 -0.000638403755147010087966918945312 -0.000277415063465014100074768066406
1534367451.35000300407409667969 0.0499989986419677734375 0.010578505694866180419921875 0.0031440448947250843048095703125 -0.0513955689966678619384765625 0.00115192763041704893112182617188 -0.00157124293036758899688720703125 -0.000592925469391047954559326171875
1534367451.40001893043518066406 0 -0.0537957809865474700927734375 0.00126530288252979516983032226562 -0.124472983181476593017578125 0.000434639659943059086799621582031 -0.00135470717214047908782958984375 -0.00191124586854130029678344726562
1534367451.45000195503234863281 0.04998302459716796875 -0.02935703098773956298828125 -0.012091712094843387603759765625 -0.05356879532337188720703125 0.000117159186629578471183776855469 8.26818213681690394878387451172e-05 0.000628927431534975767135620117188
1534367451.50013899803161621094 0.050137042999267578125 -0.010812856256961822509765625 0.00720413587987422943115234375 -0.082513235509395599365234375 0.00020346231758594512939453125 0.0005202027969062328338623046875 -0.000212010723771527409553527832031
1534367451.55000090599060058594 0.049861907958984375 -0.0132926814258098602294921875 0.0135164372622966766357421875 -0.084983654320240020751953125 -0.000349151872796937823295593261719 -0.0011081234551966190338134765625 -0.000635045405942946672439575195312
1534367451.60004711151123046875 0.0500462055206298828125 -0.01650216989219188690185546875 -0.0078277587890625 -0.06143987178802490234375 0.000886958674527704715728759765625 -0.00155075895600020885467529296875 -0.000242309295572340488433837890625
1534367451.65000104904174804688 0.049953937530517578125 -0.0382363833487033843994140625 -0.009553004987537860870361328125 -0.09415401518344879150390625 0.000931051967199891805648803710938 -0.00178065255749970674514770507812 -0.000788495584856718778610229492188
1534367451.70000505447387695312 0.05000400543212890625 -0.036327414214611053466796875 -0.01048377715051174163818359375 -0.034914754331111907958984375 0.000394974282244220376014709472656 -0.00102781027089804410934448242188 -0.000868801551405340433120727539062
1534367451.75000905990600585938 0.05000400543212890625 -0.051754437386989593505859375 -0.01860072277486324310302734375 -0.09611259400844573974609375 0.000864475674461573362350463867188 0.00134302384685724973678588867188 0.000191091428860090672969818115234
1534367451.8000030517578125 0.049993991851806640625 -0.01820881105959415435791015625 -0.00113683065865188837051391601562 -0.070509769022464752197265625 0.0007648603059351444244384765625 0.0011253096163272857666015625 0.00124768191017210483551025390625
1534367451.85015797615051269531 0.0501549243927001953125 0.000234649647609330713748931884766 0.010916285216808319091796875 -0.067366413772106170654296875 0.000312079151626676321029663085938 0.00070584029890596866607666015625 0.00131639488972723484039306640625
1534367451.90000391006469726562 0.0498459339141845703125 0.009571097791194915771484375 0.01151614449918270111083984375 -0.100216321647167205810546875 0.000375231698853895068168640136719 -0.000711287953890860080718994140625 -0.00139227812178432941436767578125
1534367451.95002007484436035156 0.0500161647796630859375 -0.0279770307242870330810546875 0.010310151614248752593994140625 -0.06478546559810638427734375 -0.000449757848400622606277465820312 -0.00162112596444785594940185546875 -0.0008474178612232208251953125
1534367452.00001192092895507812 0.0499918460845947265625 -0.01562440395355224609375 0.0146052651107311248779296875 -0.06729646027088165283203125 0.000591089890804141759872436523438 -0.00179039244540035724639892578125 -0.000612447794992476701736450195312
1534367452.05000209808349609375 0.049990177154541015625 -0.02435250021517276763916015625 0.000113343747216276824474334716797 -0.093666560947895050048828125 0.000250675686402246356010437011719 -0.00105207285378128290176391601562 -0.00072364951483905315399169921875
1534367452.10003805160522460938 0.050035953521728515625 -0.037398047745227813720703125 -0.04005275666713714599609375 -0.0591672323644161224365234375 -0.00140406074933707714080810546875 -0.000747574318666011095046997070312 -0.00172062090132385492324829101562
1534367452.15000104904174804688 0.0499629974365234375 -0.0475746877491474151611328125 -0.0610103644430637359619140625 -0.075317271053791046142578125 7.08605730324052274227142333984e-05 0.00168479350395500659942626953125 -0.000857335166074335575103759765625
1534367452.20018506050109863281 0.0501840114593505859375 -0.03143273293972015380859375 -0.04802124202251434326171875 -0.093728087842464447021484375 -0.00113752984907478094100952148438 0.00246261083520948886871337890625 0.000594083801843225955963134765625
1534367452.2500019073486328125 0.0498168468475341796875 0.001485638320446014404296875 0.006751510314643383026123046875 -0.0506925396621227264404296875 -0.00181456620339304208755493164062 0.00113203353248536586761474609375 0.00120037386659532785415649414062
1534367452.30000209808349609375 0.05000019073486328125 -0.01609915681183338165283203125 0.0584554187953472137451171875 -0.0741136968135833740234375 -0.00115150515921413898468017578125 0.0013658185489475727081298828125 0.00156474590767174959182739257812
1534367452.35000205039978027344 0.0499999523162841796875 -0.0349327139556407928466796875 0.07283271849155426025390625 -0.0554196424782276153564453125 -0.00164964236319065093994140625 0.00142818107269704341888427734375 0.000726299011148512363433837890625
1534367452.40000295639038085938 0.0500009059906005859375 0.0044297059066593647003173828125 0.02263129688799381256103515625 -0.072876684367656707763671875 -0.000887475907802581787109375 0.002703468315303325653076171875 -0.000535162515006959438323974609375
1534367452.45005893707275390625 0.050055980682373046875 -0.02064303494989871978759765625 -0.049378521740436553955078125 -0.08989538252353668212890625 -0.001803399063646793365478515625 0.00130031083244830369949340820312 -0.00126074592117220163345336914062
1534367452.5000019073486328125 0.04994297027587890625 -0.045149631798267364501953125 -0.0787732899188995361328125 -0.03650186955928802490234375 -0.00107757130172103643417358398438 0.001219659112393856048583984375 0.000750747451093047857284545898438
1534367452.55020999908447265625 0.05020809173583984375 -0.01822755672037601470947265625 -0.065938614308834075927734375 -0.09268915653228759765625 0.000242895301198586821556091308594 0.0031887036748230457305908203125 0.00334048946388065814971923828125
1534367452.60000300407409667969 0.0497930049896240234375 0.0105946399271488189697265625 0.013890669681131839752197265625 -0.0635109841823577880859375 -0.000972158915828913450241088867188 0.000439484254457056522369384765625 0.000508227793034166097640991210938
1534367452.65000200271606445312 0.0499989986419677734375 0.00179624673910439014434814453125 0.04633523523807525634765625 -0.06361882388591766357421875 -0.000321426021400839090347290039062 -0.000115733484562952071428298950195 -0.00172631232999265193939208984375
1534367452.70000290870666503906 0.0500009059906005859375 -0.03012126870453357696533203125 0.066701233386993408203125 -0.08286421000957489013671875 -0.000296060024993494153022766113281 -0.00125177146401256322860717773438 0.000121727076475508511066436767578
1534367452.75000309944152832031 0.05000019073486328125 -0.007582780905067920684814453125 0.0355928428471088409423828125 -0.0572093427181243896484375 0.00158615747932344675064086914062 -0.000759983493480831384658813476562 0.00128805148415267467498779296875
1534367452.80008411407470703125 0.0500810146331787109375 -0.009152828715741634368896484375 -0.010182485915720462799072265625 -0.091142587363719940185546875 7.96407548477873206138610839844e-05 -0.00079776602797210216522216796875 -0.00175383291207253932952880859375
1534367452.85000205039978027344 0.0499179363250732421875 -0.0473223961889743804931640625 -0.0376237593591213226318359375 -0.06651206314563751220703125 -0.000627788773272186517715454101562 -0.000241829737205989658832550048828 -0.000790250313002616167068481445312
1534367452.90023207664489746094 0.0502300262451171875 -0.0130417011678218841552734375 -0.0213661901652812957763671875 -0.0553921498358249664306640625 0.000837651663459837436676025390625 0.00077198282815515995025634765625 0.001491281203925609588623046875
1534367452.95000100135803222656 0.049768924713134765625 -0.014099699445068836212158203125 -0.02183035202324390411376953125 -0.0966501533985137939453125 7.57834350224584341049194335938e-05 0.000981891877017915248870849609375 0.00165836152154952287673950195312
1534367453.00001096725463867188 0.0500099658966064453125 -0.01693482510745525360107421875 -0.026236839592456817626953125 -0.06263147294521331787109375 -0.000834740407299250364303588867188 -7.37382870283909142017364501953e-05 -0.0005741007626056671142578125
1534367453.05000090599060058594 0.0499899387359619140625 -0.013377961702644824981689453125 -0.0025223004631698131561279296875 -0.074955724179744720458984375 -0.000535978644620627164840698242188 -0.000352338218363001942634582519531 -0.000740340910851955413818359375
1534367453.10000395774841308594 0.0500030517578125 0.003747400827705860137939453125 0.0159825794398784637451171875 -0.082887284457683563232421875 -3.61631464329548180103302001953e-05 -0.00126600905787199735641479492188 -0.000478481350000947713851928710938
1534367453.15010595321655273438 0.0501019954681396484375 -0.041588507592678070068359375 0.02102024666965007781982421875 -0.056623876094818115234375 -0.00025669671595096588134765625 -0.001001156866550445556640625 0.000423092715209349989891052246094
1534367453.20000290870666503906 0.0498969554901123046875 -0.029059611260890960693359375 0.015567020513117313385009765625 -0.063883483409881591796875 0.00107223051600158214569091796875 0.00127512007020413875579833984375 0.000741581083275377750396728515625
1534367453.25025105476379394531 0.05024814605712890625 -0.009144890122115612030029296875 -0.000996128306724131107330322265625 -0.085649259388446807861328125 -0.000115616465336643159389495849609 0.00134688720572739839553833007812 -0.00119216437451541423797607421875
1534367453.3000030517578125 0.0497519969940185546875 -0.01582370698451995849609375 -0.0281338281929492950439453125 -0.071885176002979278564453125 0.00043107266537845134735107421875 0.0008894805796444416046142578125 -0.000959224998950958251953125
1534367453.35000300407409667969 0.0499999523162841796875 -0.02397294528782367706298828125 -0.01614332385361194610595703125 -0.072125546634197235107421875 2.25767544179689139127731323242e-05 -0.000211078251595608890056610107422 0.000527198601048439741134643554688
1534367453.40000200271606445312 0.0499989986419677734375 -0.01995408348739147186279296875 0.01595626585185527801513671875 -0.07902140915393829345703125 0.000897218473255634307861328125 -0.000752256426494568586349487304688 0.000523286755196750164031982421875
1534367453.45000195503234863281 0.0499999523162841796875 -0.0352350771427154541015625 0.02102358080446720123291015625 -0.0616404898464679718017578125 -0.000353209848981350660324096679688 0.000399791257223114371299743652344 -0.000273256708169355988502502441406
1534367453.50013303756713867188 0.0501310825347900390625 -0.02659752406179904937744140625 0.009651199914515018463134765625 -0.0719501972198486328125 0.000143816476338542997837066650391 0.0004534269683063030242919921875 -0.000585468427743762731552124023438
1534367453.55000209808349609375 0.049869060516357421875 -0.01191558875143527984619140625 0.014586760662496089935302734375 -0.0596109926700592041015625 0.000461087271105498075485229492188 3.95189090340863913297653198242e-05 -7.98747205408290028572082519531e-05
1534367453.60004496574401855469 0.0500428676605224609375 -0.015110346488654613494873046875 -0.0082573927938938140869140625 -0.0796719491481781005859375 -3.89983833883889019489288330078e-05 -4.08535161113832145929336547852e-05 -0.000378823402570560574531555175781
1534367453.65000200271606445312 0.0499570369720458984375 -0.03024918399751186370849609375 -0.011796175502240657806396484375 -0.058704376220703125 0.00026582903228700160980224609375 -0.00102100265212357044219970703125 0.000126642960822209715843200683594
1534367453.70000290870666503906 0.0500009059906005859375 -0.02451586537063121795654296875 -0.00349879055283963680267333984375 -0.071797437965869903564453125 -4.21643344452604651451110839844e-05 -0.000420974945882335305213928222656 -8.66783884703181684017181396484e-05
1534367453.75002002716064453125 0.0500171184539794921875 -0.0068756029941141605377197265625 0.0202448666095733642578125 -0.069120906293392181396484375 -4.36860545960371382534503936768e-06 -0.00117454060819000005722045898438 -0.000686031940858811140060424804688
1534367453.8000030517578125 0.04998302459716796875 -0.043580196797847747802734375 0.00902291573584079742431640625 -0.066304624080657958984375 2.06091281143017113208770751953e-05 -0.000237914355238899588584899902344 -0.000418633659137412905693054199219
1534367453.85015392303466796875 0.05015087127685546875 -0.03134466707706451416015625 0.01721319742500782012939453125 -0.0687498748302459716796875 0.000236769759794697165489196777344 0.000401599856559187173843383789062 0.00089779659174382686614990234375
1534367453.90000200271606445312 0.049848079681396484375 -0.00071497284807264804840087890625 0.0019279974512755870819091796875 -0.0659942924976348876953125 -6.73294634907506406307220458984e-05 0.000406268023652955889701843261719 -0.00086023728363215923309326171875
1534367453.95001697540283203125 0.050014972686767578125 -0.03104497678577899932861328125 -0.01969180442392826080322265625 -0.072672508656978607177734375 -0.000247625750489532947540283203125 -0.000492945488076657056808471679688 -0.0007413863204419612884521484375
1534367454.00001096725463867188 0.049993991851806640625 -0.02944981865584850311279296875 0.0075895353220403194427490234375 -0.0540054142475128173828125 0.000351217488059774041175842285156 -0.000369286310160532593727111816406 0.000921742815990000963211059570312
1534367454.05000090599060058594 0.0499899387359619140625 -0.012497007846832275390625 0.02522081695497035980224609375 -0.063273794949054718017578125 0.000233433544053696095943450927734 -0.000226107615162618458271026611328 0.000513091334141790866851806640625
1534367454.10003495216369628906 0.050034046173095703125 -0.031576775014400482177734375 0.025384671986103057861328125 -0.0604345761239528656005859375 0.000204870390007272362709045410156 -0.000645747582893818616867065429688 -0.000685616105329245328903198242188
1534367454.15000009536743164062 0.0499651432037353515625 -0.0292817540466785430908203125 0.00330591085366904735565185546875 -0.05872838199138641357421875 5.92948672419879585504531860352e-05 0.000188062636880204081535339355469 0.000181538634933531284332275390625
1534367454.20018100738525390625 0.050180912017822265625 -0.015827246010303497314453125 -0.012588150799274444580078125 -0.069979704916477203369140625 0.000261783279711380600929260253906 3.47608852280245628207921981812e-06 3.40843071171548217535018920898e-05
1534367454.25000095367431640625 0.0498199462890625 -0.02438682131469249725341796875 -0.014463238418102264404296875 -0.0559278689324855804443359375 -0.000159779636305756866931915283203 -0.000478941132314503192901611328125 0.000470960862003266811370849609375
1534367454.30000209808349609375 0.0500011444091796875 -0.02159550599753856658935546875 -0.0070920228026807308197021484375 -0.066723577678203582763671875 -0.000297927967039868235588073730469 -0.000471155915874987840652465820312 -0.000270827149506658315658569335938
1534367454.35000109672546386719 0.0499989986419677734375 -0.03715299069881439208984375 0.01442656479775905609130859375 -0.06020681560039520263671875 0.000116347728180699050426483154297 4.48047539975959807634353637695e-05 2.93939556286204606294631958008e-05
1534367454.40000295639038085938 0.0500018596649169921875 -0.0167476236820220947265625 0.01593882404267787933349609375 -0.048857845366001129150390625 -0.00033272360451519489288330078125 0.000480503891594707965850830078125 0.000509857025463134050369262695312
1534367454.45005488395690917969 0.0500519275665283203125 -0.009034253656864166259765625 0.01792883314192295074462890625 -0.036872975528240203857421875 0.000479293899843469262123107910156 -0.000407821615226566791534423828125 -3.9803027902962639927864074707e-05
1534367454.50000405311584472656 0.049949169158935546875 -0.00718243420124053955078125 -0.0028851064853370189666748046875 -0.009136217646300792694091796875 4.51924293543015664909034967422e-08 -0.000685847422573715448379516601562 -0.000243587841396220028400421142578
1534367454.55020189285278320312 0.0501978397369384765625 -0.013137959875166416168212890625 -0.0205919407308101654052734375 -0.00382313947193324565887451171875 -8.25272436486557126045227050781e-05 -0.000218256187508814036846160888672 3.98211996071040630340576171875e-05
1534367454.60000300407409667969 0.0498011112213134765625 0.005181496031582355499267578125 -0.02355855889618396759033203125 0.01624140702188014984130859375 -0.000129989275592379271984100341797 4.78624751849565654993057250977e-05 -1.50724217746756039559841156006e-05
1534367454.65000104904174804688 0.0499980449676513671875 -0.0059055848978459835052490234375 -0.02629606984555721282958984375 0.02023542113602161407470703125 0.000154974884935654699802398681641 -0.000146220350870862603187561035156 -0.000743995013181120157241821289062
1534367454.70000290870666503906 0.0500018596649169921875 -0.02282071299850940704345703125 -0.0142529010772705078125 0.01998011767864227294921875 -0.000397932220948860049247741699219 -0.000200360940652899444103240966797 5.41031258762814104557037353516e-05
1534367454.75000095367431640625 0.0499980449676513671875 -0.000446094461949542164802551269531 0.00318142049945890903472900390625 0.021315447986125946044921875 0.000142254953971132636070251464844 0.000643284642137587070465087890625 0.000640894111711531877517700195312
1534367454.80008006095886230469 0.0500791072845458984375 0.00652876310050487518310546875 0.0053199385292828083038330078125 0.01747787930071353912353515625 0.00039326469413936138153076171875 0.000361216778401285409927368164062 -0.000465170363895595073699951171875
1534367454.85000109672546386719 0.0499210357666015625 -0.008863297291100025177001953125 -0.017611421644687652587890625 0.01974556408822536468505859375 1.02172416518442332744598388672e-05 5.30300712853204458951950073242e-05 -0.000644461193587630987167358398438
1534367454.90023088455200195312 0.0502297878265380859375 -0.010399653576314449310302734375 -0.02211344242095947265625 0.014380575157701969146728515625 0.00029964768327772617340087890625 0.000214844389120116829872131347656 0.000191191196790896356105804443359
1534367454.95000100135803222656 0.0497701168060302734375 0.0075858398340642452239990234375 -0.01603007502853870391845703125 0.022516019642353057861328125 -0.000322991894790902733802795410156 -0.000390515837352722883224487304688 0.000335904769599437713623046875
1534367455.00001096725463867188 0.0500099658966064453125 -0.00221303687430918216705322265625 -0.014860960654914379119873046875 0.01589825935661792755126953125 -0.000105401013570372015237808227539 -0.000364128616638481616973876953125 -0.000800820125732570886611938476562
1534367455.05000090599060058594 0.0499899387359619140625 -0.019503392279148101806640625 -0.0084928981959819793701171875 0.0320614688098430633544921875 -0.000163464967045001685619354248047 -9.4416109277517534792423248291e-06 0.00012773857451975345611572265625
1534367455.10000395774841308594 0.0500030517578125 -0.00260696629993617534637451171875 -0.0054503120481967926025390625 0.02382963337004184722900390625 9.60680117714218795299530029297e-05 0.000324687251122668385505676269531 0.000722520053386688232421875
1534367455.15010190010070800781 0.050097942352294921875 0.00279422546736896038055419921875 -0.000534152553882449865341186523438 0.01547363214194774627685546875 0.000165380581165663897991180419922 4.59455477539449930191040039062e-05 -0.000155179019202478229999542236328
1534367455.20000195503234863281 0.049900054931640625 -0.0083235017955303192138671875 -0.0163092203438282012939453125 0.0219663642346858978271484375 -0.000234048129641450941562652587891 0.000210016427445225417613983154297 3.955862484872341156005859375e-05
1534367455.250247955322265625 0.0502460002899169921875 -0.0018943841569125652313232421875 -0.01463474333286285400390625 0.012055098079144954681396484375 0.00070728198625147342681884765625 -5.27428601344581693410873413086e-05 0.00057941512204706668853759765625
1534367455.3000030517578125 0.049755096435546875 -0.008391783572733402252197265625 -0.0130940489470958709716796875 0.0180912874639034271240234375 -0.0012376424856483936309814453125 -3.79254124709405004978179931641e-05 -0.000170036015333607792854309082031
1534367455.35000205039978027344 0.0499989986419677734375 0.00107180711347609758377075195312 -0.0221356041729450225830078125 0.01824629865586757659912109375 -0.00055049196816980838775634765625 0.000249855627771466970443725585938 -0.000682808284182101488113403320312
1534367455.40000200271606445312 0.0499999523162841796875 -0.01097576878964900970458984375 -0.00984544493257999420166015625 0.01569748856127262115478515625 -0.000150849533383734524250030517578 -9.15941109269624575972557067871e-06 -0.000315725075779482722282409667969
1534367455.45000100135803222656 0.0499989986419677734375 0.000987050938419997692108154296875 -0.014794625341892242431640625 0.01715345680713653564453125 -4.08331507060211151838302612305e-05 0.000181236042408272624015808105469 0.000587602087762206792831420898438
1534367455.50012993812561035156 0.050128936767578125 -0.00133489177096635103225708007812 0.00560588948428630828857421875 0.01652737148106098175048828125 0.000614713004324585199356079101562 -0.000591945950873196125030517578125 -0.000218580637010745704174041748047
1534367455.54999995231628417969 0.049870014190673828125 -0.010343461297452449798583984375 0.000328008463839069008827209472656 0.02100538276135921478271484375 0.00031035835854709148406982421875 -0.000565516646020114421844482421875 -0.000120120748761110007762908935547
1534367455.60004091262817382812 0.0500409603118896484375 -0.004353237338364124298095703125 -0.0022296118550002574920654296875 0.02274358831346035003662109375 0.000120050775876734405755996704102 -2.85840633296174928545951843262e-05 0.000487978133605793118476867675781
1534367455.65000104904174804688 0.04996013641357421875 -0.008112676441669464111328125 -0.0163195468485355377197265625 0.0094459019601345062255859375 -0.000167437014169991016387939453125 -0.000457203626865521073341369628906 -4.50925836048554629087448120117e-05
1534367455.70000195503234863281 0.0500009059906005859375 0.000899597129318863153457641601562 -0.01688188128173351287841796875 0.021028973162174224853515625 0.000140877265948802232742309570312 -0.000304773944662883877754211425781 0.00027747289277613162994384765625
1534367455.75001311302185058594 0.050011157989501953125 -0.0055207130499184131622314453125 -0.0044317464344203472137451171875 0.01692262850701808929443359375 0.000391101173590868711471557617188 -0.000164776225574314594268798828125 -0.0002633384428918361663818359375
1534367455.80000209808349609375 0.0499889850616455078125 -0.000972116715274751186370849609375 -0.0046581323258578777313232421875 0.0170285440981388092041015625 0.000128600120660848915576934814453 0.000144320598337799310684204101562 0.000197240675333887338638305664062
1534367455.85015010833740234375 0.05014801025390625 -0.0045440248213708400726318359375 -0.0030711726285517215728759765625 0.02510044164955615997314453125 0.000612380623351782560348510742188 0.000588549242820590734481811523438 -0.000170858082128688693046569824219
1534367455.90000200271606445312 0.049851894378662109375 -0.0051212613470852375030517578125 -0.0124893896281719207763671875 0.00932057015597820281982421875 -0.000232886843150481581687927246094 0.000210367419640533626079559326172 -9.19169469852931797504425048828e-05
1534367455.950016021728515625 0.050014019012451171875 -0.0105025358498096466064453125 -0.02246304042637348175048828125 0.0269387625157833099365234375 -0.000407927116611972451210021972656 -0.000440906442236155271530151367188 -0.000121490906167309731245040893555
1534367456.00001001358032226562 0.049993991851806640625 -0.00210913573391735553741455078125 -0.007973226718604564666748046875 0.01274801976978778839111328125 0.00080292276106774806976318359375 0.000135311216581612825393676757812 4.44948483391272020526230335236e-07
1534367456.04999995231628417969 0.0499899387359619140625 -0.00999424420297145843505859375 0.0046903337351977825164794921875 0.0175273232161998748779296875 -0.000332867086399346590042114257812 -0.000749127415474504232406616210938 -0.000195782922673970460891723632812
1534367456.10004091262817382812 0.0500409603118896484375 -0.009562822990119457244873046875 -0.0056589529849588871002197265625 0.02607445605099201202392578125 -0.000102171303296927362680435180664 0.000184186443220824003219604492188 0.000268711330136284232139587402344
1534367456.15000104904174804688 0.04996013641357421875 0.018705822527408599853515625 0.00785361416637897491455078125 0.0122554339468479156494140625 -9.32109833229333162307739257812e-05 2.2424594135372899472713470459e-05 -0.000425805425038561224937438964844
1534367456.20017790794372558594 0.0501768589019775390625 0.0028041093610227108001708984375 -0.010600574314594268798828125 0.013776049949228763580322265625 -0.000319442449836060404777526855469 -0.000428077502874657511711120605469 -0.000191418323083780705928802490234
1534367456.25000095367431640625 0.0498230457305908203125 -0.00830736197531223297119140625 -0.01751008443534374237060546875 0.0204017162322998046875 0.000344702682923525571823120117188 -0.000689940701704472303390502929688 -9.93940629996359348297119140625e-05
1534367456.3000030517578125 0.05000209808349609375 -0.01025844551622867584228515625 -0.01363045535981655120849609375 0.010739929974079132080078125 -0.000575046695303171873092651367188 -0.000446202087914571166038513183594 0.000280961015960201621055603027344
1534367456.35000109672546386719 0.0499980449676513671875 0.000829465861897915601730346679688 0.0036498517729341983795166015625 0.0157459937036037445068359375 1.06653124021249823272228240967e-05 -0.000495495914947241544723510742188 -7.79998736106790602207183837891e-05
1534367456.40000295639038085938 0.0500018596649169921875 -0.013103813864290714263916015625 -0.00846333242952823638916015625 0.02388660423457622528076171875 0.000151419604662805795669555664062 0.000208182522328570485115051269531 -0.000127213788800872862339019775391
1534367456.45006108283996582031 0.0500581264495849609375 0.000285121524939313530921936035156 -0.00853876955807209014892578125 0.013848309405148029327392578125 0.000178371818037703633308410644531 0.0012425514869391918182373046875 0.000388695218134671449661254882812
1534367456.50000309944152832031 0.0499420166015625 0.01853399910032749176025390625 -0.006905299611389636993408203125 0.010904612950980663299560546875 0.000903775158803910017013549804688 0.000169687162269838154315948486328 0.000587811577133834362030029296875
1534367456.55019998550415039062 0.0501968860626220703125 0.00132707669399678707122802734375 -0.010601636953651905059814453125 0.0166532509028911590576171875 -0.000648931774776428937911987304688 0.000218057029996998608112335205078 -7.93930739746429026126861572266e-05
1534367456.60000300407409667969 0.0498030185699462890625 -0.0045896987430751323699951171875 0.009877000935375690460205078125 0.02944026701152324676513671875 0.00052925501950085163116455078125 0.0005172831006348133087158203125 0.000825684226583689451217651367188
1534367456.65000009536743164062 0.0499970912933349609375 0.0047949361614882946014404296875 -0.000773154490161687135696411132812 0.01844670809805393218994140625 0.000121887584100477397441864013672 5.99441736994776874780654907227e-05 9.61551268119364976882934570312e-05
1534367456.70000195503234863281 0.0500018596649169921875 0.0075428918935358524322509765625 -0.010522781871259212493896484375 0.02432811819016933441162109375 0.000234293023822829127311706542969 -0.000560005602892488241195678710938 -0.000698629592079669237136840820312
1534367456.7500019073486328125 0.0499999523162841796875 -0.0037448643706738948822021484375 -0.03471209108829498291015625 0.02059653960168361663818359375 0.000500754162203520536422729492188 -0.000569884548895061016082763671875 -0.001419834792613983154296875
1534367456.80008411407470703125 0.05008220672607421875 -0.00341589446179568767547607421875 -0.033417351543903350830078125 0.020784534513950347900390625 0.000215881518670357763767242431641 -0.000776412489358335733413696289062 0.000694537186063826084136962890625
1534367456.85000109672546386719 0.0499169826507568359375 0.000194838226889260113239288330078 -0.00117505912203341722488403320312 0.0214408375322818756103515625 0.0017771073617041110992431640625 -0.00119847920723259449005126953125 5.33405036549083888530731201172e-05
1534367456.90022611618041992188 0.0502250194549560546875 -0.0160762332379817962646484375 0.011166145093739032745361328125 0.02331721968948841094970703125 0.00189015618525445461273193359375 0.000504038180224597454071044921875 0.00104772753547877073287963867188
1534367456.95000004768371582031 0.0497739315032958984375 0.0010970928706228733062744140625 0.0311502926051616668701171875 -0.0040562339127063751220703125 0.000176228539203293621540069580078 0.0010405532084405422210693359375 0.000236214822507463395595550537109
1534367457.00001096725463867188 0.0500109195709228515625 -0.02804548479616641998291015625 0.01313130371272563934326171875 0.003014025278389453887939453125 0.000456022622529417276382446289062 0.003493249416351318359375 0.00125217367894947528839111328125
1534367457.05000090599060058594 0.0499899387359619140625 0.011984334327280521392822265625 -0.0338623225688934326171875 0.01424055360257625579833984375 -0.000659666780848056077957153320312 0.00344710494391620159149169921875 0.00259204767644405364990234375
1534367457.10000205039978027344 0.0500011444091796875 0.032223381102085113525390625 -0.02825365029275417327880859375 0.01711362786591053009033203125 0.000491892569698393344879150390625 0.00203054933808743953704833984375 0.000385849853046238422393798828125
1534367457.15009999275207519531 0.050097942352294921875 -0.0076963105238974094390869140625 -0.0222947932779788970947265625 0.00169356784317642450332641601562 -0.000572157208807766437530517578125 0.000431840046076104044914245605469 -0.000214236933970823884010314941406
1534367457.20000290870666503906 0.04990291595458984375 -0.0079705975949764251708984375 -0.012832410633563995361328125 0.02001749910414218902587890625 -0.000439441413618624210357666015625 0.000987313105724751949310302734375 0.00154644285794347524642944335938
1534367457.25026798248291015625 0.0502650737762451171875 0.012374506331980228424072265625 0.0028065857477486133575439453125 0.01988113112747669219970703125 0.00099864904768764972686767578125 0.000530443037860095500946044921875 0.00118823454249650239944458007812
1534367457.30000209808349609375 0.0497341156005859375 -0.000325598637573421001434326171875 0.0046077514998614788055419921875 0.013092763721942901611328125 -0.0006620050407946109771728515625 1.3955868780612945556640625e-06 -0.000462124473415315151214599609375
1534367457.35000205039978027344 0.0499999523162841796875 -0.009810547344386577606201171875 -0.00536837615072727203369140625 0.003749005496501922607421875 -6.77598582115024328231811523438e-05 0.000570305332075804471969604492188 -6.54593241051770746707916259766e-05
1534367457.40000200271606445312 0.0499999523162841796875 0.004231768660247325897216796875 -0.0072290417738258838653564453125 0.0166292078793048858642578125 0.000449906772701069712638854980469 -3.01835571008268743753433227539e-05 0.000562319473829120397567749023438
1534367457.45000100135803222656 0.0499989986419677734375 -0.0171575658023357391357421875 -0.0239385180175304412841796875 0.031443141400814056396484375 0.00192995066754519939422607421875 9.88999163382686674594879150391e-05 -0.000187919082236476242542266845703
1534367457.500125885009765625 0.0501248836517333984375 0.03111865185201168060302734375 -0.02100194990634918212890625 -0.0389266908168792724609375 0.00120520067866891622543334960938 -0.000172897765878587961196899414062 5.2110011893091723322868347168e-05
1534367457.54999995231628417969 0.0498740673065185546875 -0.00356228719465434551239013671875 -0.0068861688487231731414794921875 0.01676438562572002410888671875 -0.00202109478414058685302734375 -0.0022772639058530330657958984375 -0.0015252199955284595489501953125
1534367457.60003900527954101562 0.0500390529632568359375 -0.0128674395382404327392578125 0.026072680950164794921875 0.0315797030925750732421875 0.00114695471711456775665283203125 -0.000326618726830929517745971679688 0.000341887207468971610069274902344
1534367457.65000104904174804688 0.04996204376220703125 -0.0147635526955127716064453125 0.0565290749073028564453125 -0.0242220275104045867919921875 -0.00109508330933749675750732421875 0.000655711919534951448440551757812 0.00101586023811250925064086914062
1534367457.70000195503234863281 0.0500009059906005859375 0.012107473798096179962158203125 0.02712615020573139190673828125 0.02679399959743022918701171875 -0.00231848307885229587554931640625 0.000728987448383122682571411132812 -3.67674583685584366321563720703e-05
1534367457.75001001358032226562 0.0500080585479736328125 -0.00330390757881104946136474609375 -0.009272514842450618743896484375 0.000275067839538678526878356933594 -0.00315250665880739688873291015625 0.002077274955809116363525390625 -8.42398439999669790267944335938e-05
1534367457.80000209808349609375 0.049992084503173828125 0.01069152355194091796875 -0.06116713583469390869140625 0.0381755866110324859619140625 -0.000731597596313804388046264648438 0.000791448575910180807113647460938 0.0008192919194698333740234375
1534367457.85014891624450683594 0.0501468181610107421875 0.01892348565161228179931640625 -0.0538348443806171417236328125 0.019583292305469512939453125 0.00143196957651525735855102539062 0.000927369459532201290130615234375 3.5994617064716294407844543457e-05
1534367457.90000200271606445312 0.0498530864715576171875 0.004715523682534694671630859375 -0.006552678532898426055908203125 -0.01953027211129665374755859375 -0.00167956645600497722625732421875 -0.00105183513369411230087280273438 -0.000257774983765557408332824707031
1534367457.95001006126403808594 0.0500080585479736328125 0.00805793516337871551513671875 0.0263812653720378875732421875 0.0432747714221477508544921875 0.000153051863890141248703002929688 -0.00060850498266518115997314453125 0.000225732423132285475730895996094
1534367458.00001001358032226562 0.0499999523162841796875 0.0044835261069238185882568359375 0.0541722774505615234375 0.005061206407845020294189453125 0.000892116571776568889617919921875 1.9671651898534037172794342041e-05 0.000193928877706639468669891357422
1534367458.05000090599060058594 0.0499908924102783203125 0.010738071985542774200439453125 0.029195107519626617431640625 0.0157396011054515838623046875 -0.000471572740934789180755615234375 0.000299835286568850278854370117188 0.000134014873765408992767333984375
1534367458.1000270843505859375 0.0500261783599853515625 0.007051940076053142547607421875 -0.0070595084689557552337646484375 0.01714930497109889984130859375 0.000805356481578201055526733398438 0.000616650271695107221603393554688 -0.000388291460694745182991027832031
1534367458.15000009536743164062 0.049973011016845703125 0.0074381674639880657196044921875 -0.0215530134737491607666015625 -0.00279235281050205230712890625 0.00075777643360197544097900390625 0.000460007198853418231010437011719 7.17464863555505871772766113281e-05
1534367458.20017504692077636719 0.0501749515533447265625 0.01725456677377223968505859375 -0.02613530494272708892822265625 0.01418259181082248687744140625 -0.000434288202086463570594787597656 -0.000809151737485080957412719726562 0.000745752768125385046005249023438
1534367458.25000095367431640625 0.0498259067535400390625 0.010127202607691287994384765625 -0.005905705504119396209716796875 -0.00149054662324488162994384765625 0.000274521007668226957321166992188 -0.00087160128168761730194091796875 -0.000511051039211452007293701171875
1534367458.3000030517578125 0.05000209808349609375 -0.02036563865840435028076171875 0.01330287940800189971923828125 0.00959111563861370086669921875 -0.000171233856235630810260772705078 -0.000271798257017508149147033691406 -0.00031372322700917720794677734375
1534367458.35000109672546386719 0.0499980449676513671875 0.008967663161456584930419921875 0.02095909230411052703857421875 0.01130499131977558135986328125 -5.05643547512590885162353515625e-05 0.000558871368411928415298461914062 0.000550849479623138904571533203125
1534367458.40000200271606445312 0.0500009059906005859375 0.0121330320835113525390625 0.016353853046894073486328125 0.00138665479607880115509033203125 0.0003353767096996307373046875 0.000587650632951408624649047851562 -0.000196996479644440114498138427734
1534367458.45005202293395996094 0.0500500202178955078125 0.009325002320110797882080078125 -0.00794701278209686279296875 0.012251221574842929840087890625 -0.000375237897969782352447509765625 0.000516934145707637071609497070312 -0.00027230638079345226287841796875
1534367458.50000309944152832031 0.049951076507568359375 0.004748187027871608734130859375 -0.012066827155649662017822265625 0.0067492895759642124176025390625 0.000155893198098056018352508544922 -0.000584524706937372684478759765625 -0.000120730779599398374557495117188
1534367458.55019593238830566406 0.05019283294677734375 0.00214205426163971424102783203125 0.00134533911477774381637573242188 0.0061876736581325531005859375 1.28921201394405215978622436523e-05 -0.0003999820910394191741943359375 -0.000261178211076185107231140136719
1534367458.60000300407409667969 0.049807071685791015625 -0.00119366939179599285125732421875 0.00135698006488382816314697265625 0.0087943859398365020751953125 -0.000214655476156622171401977539062 0.000329557136865332722663879394531 3.6557914881996111944317817688e-06
1534367458.65000009536743164062 0.0499970912933349609375 -0.014911147765815258026123046875 0.00847271271049976348876953125 0.0034729274921119213104248046875 -0.000693781359586864709854125976562 -0.000282356020761653780937194824219 0.000457277958048507571220397949219
1534367458.70000195503234863281 0.0500018596649169921875 0.00133989856112748384475708007812 0.0043875686824321746826171875 0.0053811627440154552459716796875 0.000128466184833087027072906494141 0.000363812869181856513023376464844 0.000391110370401293039321899414062
1534367458.7500019073486328125 0.0499999523162841796875 -0.00269740517251193523406982421875 0.00113497371785342693328857421875 0.000313474913127720355987548828125 0.000394681905163452029228210449219 0.000627680274192243814468383789062 -0.000467641686554998159408569335938
1534367458.80007410049438476562 0.050072193145751953125 0.00332267396152019500732421875 -0.007913875393569469451904296875 -0.0024382886476814746856689453125 -0.000550605414900928735733032226562 -0.00053037214092910289764404296875 -4.89221201860345900058746337891e-05
1534367458.85000109672546386719 0.0499269962310791015625 -0.013596691191196441650390625 -0.012124598026275634765625 0.000351248017977923154830932617188 7.82652568886987864971160888672e-05 -0.000462312105810269713401794433594 0.000179160342668183147907257080078
1534367458.90022301673889160156 0.050221920013427734375 -0.010544580407440662384033203125 -0.00184180936776101589202880859375 -0.002208835445344448089599609375 -0.000330397335346788167953491210938 -0.000441782787675037980079650878906 0.000345211097737774252891540527344
1534367458.95000100135803222656 0.049777984619140625 -0.0055300588719546794891357421875 0.00387012399733066558837890625 -0.0070015792734920978546142578125 -0.000411249522585421800613403320312 9.82042620307765901088714599609e-05 -4.97232285852078348398208618164e-05
1534367459.00001096725463867188 0.0500099658966064453125 -0.00119335693307220935821533203125 0.0074575864709913730621337890625 -0.000129354506498202681541442871094 0.00042513874359428882598876953125 -0.000262408138951286673545837402344 9.83993886620737612247467041016e-05
1534367459.04999995231628417969 0.0499889850616455078125 0.000861937820445746183395385742188 0.003984801471233367919921875 -0.003320957534015178680419921875 -0.000410439417464658617973327636719 0.000313998723868280649185180664062 0.000282647000858560204505920410156
1534367459.10000395774841308594 0.05000400543212890625 0.002348392270505428314208984375 -0.00515424646437168121337890625 -0.003465420566499233245849609375 6.85736522427760064601898193359e-05 -0.000528320262674242258071899414062 0.000304089509882032871246337890625
1534367459.15010690689086914062 0.0501029491424560546875 -0.0031001060269773006439208984375 0.000108545027615036815404891967773 -0.00133651995565742254257202148438 -0.000260377972153946757316589355469 -0.00085583492182195186614990234375 -0.000340883503668010234832763671875
1534367459.20000195503234863281 0.0498950481414794921875 -0.000781626091338694095611572265625 -0.005762378685176372528076171875 0.00232588313519954681396484375 0.000468671700218692421913146972656 0.000112569068733137100934982299805 3.03686501865740865468978881836e-05
1534367459.25023603439331054688 0.0502340793609619140625 0.00154869700782001018524169921875 -0.0059428750537335872650146484375 0.000351838476490229368209838867188 -7.27662481949664652347564697266e-05 0.000311878597130998969078063964844 0.000192919367691501975059509277344
1534367459.30000209808349609375 0.049766063690185546875 -0.000991011387668550014495849609375 0.00825093872845172882080078125 -0.0037495926953852176666259765625 0.000184637945494614541530609130859 0.000274512800388038158416748046875 0.000436985777923837304115295410156
1534367459.35000205039978027344 0.0499999523162841796875 -0.007494187913835048675537109375 0.004751126281917095184326171875 -0.004345946013927459716796875 0.00059215421788394451141357421875 -9.73487258306704461574554443359e-05 -0.000312952353851869702339172363281
1534367459.40000200271606445312 0.0499999523162841796875 -0.005093154497444629669189453125 9.43973209359683096408843994141e-05 -0.005867563188076019287109375 -0.000421616510720923542976379394531 -0.000157355490955524146556854248047 0.000102861973573453724384307861328
1534367459.45000195503234863281 0.0499999523162841796875 -0.00500047206878662109375 -0.0061999852769076824188232421875 -0.00946050696074962615966796875 0.000376114126993343234062194824219 -0.000397695810534060001373291015625 0.000170675761182792484760284423828
1534367459.5001239776611328125 0.0501220226287841796875 -0.009926445782184600830078125 0.00085825449787080287933349609375 -0.005459544248878955841064453125 0.000255308958003297448158264160156 -0.000404455058742314577102661132812 0.000212480721529573202133178710938
1534367459.54999995231628417969 0.0498759746551513671875 0.00160049379337579011917114257812 -0.0068497429601848125457763671875 -0.0027804314158856868743896484375 6.1386335801216773688793182373e-06 8.06288080639205873012542724609e-05 0.000222796632442623376846313476562
1534367459.60002803802490234375 0.0500280857086181640625 -0.0068323952145874500274658203125 0.0016937516629695892333984375 -0.010133854113519191741943359375 0.000396311166696250438690185546875 9.67024825513362884521484375e-05 -0.000163848453667014837265014648438
1534367459.65000104904174804688 0.049973011016845703125 0.000647172390017658472061157226562 0.0071314512751996517181396484375 -0.01573584042489528656005859375 -9.95157242869026958942413330078e-05 -9.16846620384603738784790039062e-05 0.000213918159715831279754638671875
1534367459.70000195503234863281 0.0500009059906005859375 -0.0082277394831180572509765625 0.0071624987758696079254150390625 -0.015235726721584796905517578125 0.000318667007377371191978454589844 -0.000278120423899963498115539550781 -0.000383626407710835337638854980469
1534367459.7500019073486328125 0.0499999523162841796875 -0.00341587024740874767303466796875 0.005446548573672771453857421875 -0.007603512145578861236572265625 -0.000272503093583509325981140136719 -0.000725087709724903106689453125 0.000268232804955914616584777832031
1534367459.80000209808349609375 0.05000019073486328125 -0.002073963172733783721923828125 0.000307488167891278862953186035156 -0.0072496314533054828643798828125 -0.000189582293387502431869506835938 -0.000950707879383116960525512695312 -0.000409367494285106658935546875
1534367459.8501529693603515625 0.05015087127685546875 -0.0040501416660845279693603515625 -0.000874545134138315916061401367188 -0.004930637776851654052734375 2.69252668658737093210220336914e-05 0.000155901332618668675422668457031 0.000127026098198257386684417724609
1534367459.90000295639038085938 0.049849987030029296875 -0.009230091236531734466552734375 -0.00155259517487138509750366210938 -0.005936081521213054656982421875 -7.14640846126712858676910400391e-05 9.64610080700367689132690429688e-05 -0.000214822212001308798789978027344
1534367459.95000791549682617188 0.0500049591064453125 -0.0036499402485787868499755859375 -0.0008554942905902862548828125 -0.01199171878397464752197265625 0.000534553488250821828842163085938 0.000221995112951844930648803710938 7.49254977563396096229553222656e-05
1534367460.00001096725463867188 0.0500030517578125 -0.000446922495029866695404052734375 -0.004937850870192050933837890625 -0.0072188149206340312957763671875 -0.000661213009152561426162719726562 -3.46213055308908224105834960938e-05 -0.000155582805746234953403472900391
1534367460.04999995231628417969 0.0499889850616455078125 -0.0067419148981571197509765625 -0.002124949358403682708740234375 -0.010747206397354602813720703125 -0.000790162361226975917816162109375 -0.000329222093569114804267883300781 -0.000447790109319612383842468261719
1534367460.10002398490905761719 0.0500240325927734375 0.0023290454410016536712646484375 0.002457379363477230072021484375 -0.00924272835254669189453125 3.94501112168654799461364746094e-05 -0.000146049089380539953708648681641 0.000379878270905464887619018554688
1534367460.15000104904174804688 0.0499770641326904296875 -0.00044648046605288982391357421875 5.61748711334075778722763061523e-05 0.0025886162184178829193115234375 -0.000423849676735699176788330078125 -0.000318017438985407352447509765625 -0.000118511219625361263751983642578
1534367460.20017290115356445312 0.05017185211181640625 -0.011495591141283512115478515625 -0.00351603329181671142578125 -0.0041342773474752902984619140625 -7.21534815966151654720306396484e-05 0.0003174655139446258544921875 0.000133812485728412866592407226562
1534367460.25000095367431640625 0.049828052520751953125 0.00142561527900397777557373046875 -0.009834863245487213134765625 -0.0064176102168858051300048828125 -0.000489281548652797937393188476562 0.0007505011744797229766845703125 5.00188762089237570762634277344e-05
1534367460.3000030517578125 0.05000209808349609375 -0.00202073552645742893218994140625 0.00279882899485528469085693359375 -0.002125338651239871978759765625 0.000203485265956260263919830322266 0.000272633100394159555435180664062 0.000190748658496886491775512695312
1534367460.35000109672546386719 0.0499980449676513671875 0.0022920831106603145599365234375 -0.003068744204938411712646484375 -0.0023008924908936023712158203125 0.000124335871078073978424072265625 0.00059165363200008869171142578125 -0.000158215349074453115463256835938
1534367460.40000200271606445312 0.0500009059906005859375 -8.17154505057260394096374511719e-05 -0.005156927742063999176025390625 -0.00188353064004331827163696289062 -8.64141184138134121894836425781e-05 -5.7040317187784239649772644043e-05 -7.40673931431956589221954345703e-05
1534367460.45004606246948242188 0.05004405975341796875 -0.0069281160831451416015625 -0.006525956094264984130859375 0.0039593563415110111236572265625 7.44932622183114290237426757812e-05 0.000284090318018570542335510253906 0.000320898659992963075637817382812
1534367460.50000309944152832031 0.0499570369720458984375 -0.000339942489517852663993835449219 -0.008801684714853763580322265625 -0.005525954999029636383056640625 -0.000652482907753437757492065429688 0.000617662095464766025543212890625 -0.000351485679857432842254638671875
1534367460.55019497871398925781 0.0501918792724609375 -0.01013063453137874603271484375 -0.00388143514283001422882080078125 -0.0036583947949111461639404296875 0.000214791842154227197170257568359 0.000135704292915761470794677734375 -0.000105616672954056411981582641602
1534367460.60000300407409667969 0.049808025360107421875 -0.0035928948782384395599365234375 -0.0011717821471393108367919921875 -0.0037869489751756191253662109375 1.31774340843548998236656188965e-05 0.000341830367688089609146118164062 -0.000394414557376876473426818847656
1534367460.65000009536743164062 0.0499970912933349609375 -0.00783454440534114837646484375 -0.00232143490575253963470458984375 -0.0045532970689237117767333984375 0.000119403128337580710649490356445 -1.15873408503830432891845703125e-05 -0.000393640162656083703041076660156
1534367460.70000195503234863281 0.0500018596649169921875 -0.0079880468547344207763671875 0.00262812315486371517181396484375 -0.00169256946537643671035766601562 -0.000145885918755084276199340820312 -0.000166525845997966825962066650391 -0.000274839985650032758712768554688
1534367460.7500019073486328125 0.0499999523162841796875 -0.0061650802381336688995361328125 -0.00307817733846604824066162109375 -0.0057190959341824054718017578125 -5.10452227899804711341857910156e-05 -0.000117930678243283182382583618164 8.06277530500665307044982910156e-05
1534367460.80007410049438476562 0.050072193145751953125 -0.009694389067590236663818359375 -0.00044871377758681774139404296875 -0.0073415921069681644439697265625 0.000112361951323691755533218383789 -2.83309873339021578431129455566e-05 -6.27854387857951223850250244141e-05
1534367460.85000109672546386719 0.0499269962310791015625 -0.0096700489521026611328125 -0.008088153786957263946533203125 -0.00462888740003108978271484375 -3.156252205371856689453125e-05 0.000131944179884158074855804443359 2.00261929421685636043548583984e-05
1534367460.90022110939025878906 0.050220012664794921875 -0.012479794211685657501220703125 -0.0042645498178899288177490234375 0.00209532235749065876007080078125 -0.000139188166940584778785705566406 0.000104471619124524295330047607422 7.00900491210632026195526123047e-05
1534367460.95000100135803222656 0.0497798919677734375 -0.0048165111802518367767333984375 -0.00871562026441097259521484375 -0.00261018727906048297882080078125 0.000171187290106900036334991455078 0.00038742064498364925384521484375 -9.0419152911636047065258026123e-06
1534367461.00001096725463867188 0.0500099658966064453125 -0.0064386385492980480194091796875 -0.0096819512546062469482421875 0.00191102398093789815902709960938 -0.000344600906828418374061584472656 0.000238305336097255349159240722656 -3.14481803798116743564605712891e-05
1534367461.05000090599060058594 0.0499899387359619140625 -0.01357463188469409942626953125 0.00028008338995277881622314453125 -0.0054736030288040637969970703125 -0.000600277562625706195831298828125 4.94861888000741600990295410156e-05 1.71726298958674306049942970276e-06
1534367461.10000395774841308594 0.0500030517578125 -0.0040107634849846363067626953125 -0.002260624431073665618896484375 -0.00415477342903614044189453125 -9.77614618022926151752471923828e-05 0.000238473934587091207504272460938 -0.000225536728976294398307800292969
1534367461.1500949859619140625 0.0500910282135009765625 -0.0121048726141452789306640625 -0.00325174327008426189422607421875 -0.0048230998218059539794921875 0.000238440974499098956584930419922 -4.88700025016441941261291503906e-05 0.000110994267743080854415893554688
1534367461.20000195503234863281 0.0499069690704345703125 -0.0136566199362277984619140625 -0.00231780740432441234588623046875 -0.0031245215795934200286865234375 -0.00055049802176654338836669921875 -0.000181948882527649402618408203125 -0.000202447234187275171279907226562
1534367461.25023388862609863281 0.05023193359375 -0.008509646169841289520263671875 -0.0061873267404735088348388671875 -0.0093046836555004119873046875 -2.02350274776108562946319580078e-05 5.67215147384558804333209991455e-06 -9.04105327208526432514190673828e-05
1534367461.3000030517578125 0.0497691631317138671875 -0.0016407375223934650421142578125 -0.000647552602458745241165161132812 -0.00214343634434044361114501953125 -0.000205426258617080748081207275391 0.000145418394822627305984497070312 -0.000586355046834796667098999023438
1534367461.35000109672546386719 0.0499980449676513671875 -0.010265951044857501983642578125 -0.0033799842931330204010009765625 0.00166979816276580095291137695312 1.04524315247545018792152404785e-05 8.95788252819329500198364257812e-05 -0.000152667635120451450347900390625
1534367461.40000200271606445312 0.0500009059906005859375 -0.00358704547397792339324951171875 -0.0022229640744626522064208984375 0.000364944193279370665550231933594 -0.000409297208534553647041320800781 -0.000364430685294792056083679199219 0.00061674159951508045196533203125
1534367461.45000100135803222656 0.0499989986419677734375 0.00466793589293956756591796875 -0.00838389806449413299560546875 0.00380101078189909458160400390625 -0.000376170588424429297447204589844 -0.000651685171760618686676025390625 -0.000112963709398172795772552490234
1534367461.50012111663818359375 0.0501201152801513671875 -0.009196095168590545654296875 -0.00398255698382854461669921875 -0.00114498718176037073135375976562 5.20428948220796883106231689453e-05 0.000110155589936766773462295532227 0.000226366479182615876197814941406
1534367461.54999995231628417969 0.0498788356781005859375 -0.00241907988674938678741455078125 -0.00272027589380741119384765625 0.003746478818356990814208984375 -0.000142497374326921999454498291016 2.27124905904929619282484054565e-06 -3.20671169902198016643524169922e-05
1534367461.60002589225769042969 0.05002593994140625 -0.0068438439629971981048583984375 -0.003294907510280609130859375 -0.001192850060760974884033203125 -0.000767590419854968786239624023438 -6.30469548923429101705551147461e-06 0.000175828405190259218215942382812
1534367461.65000104904174804688 0.0499751567840576171875 -0.012064419686794281005859375 -0.0020092404447495937347412109375 0.000846069946419447660446166992188 0.000378847675165161490440368652344 -0.0006920672021806240081787109375 -0.000324068998452275991439819335938
1534367461.70000195503234863281 0.0500009059906005859375 -0.0051829195581376552581787109375 -0.008476309478282928466796875 0.0017544887959957122802734375 -0.000177801965037360787391662597656 6.86613275320269167423248291016e-05 3.14752178383059799671173095703e-05
1534367461.7500019073486328125 0.0499999523162841796875 -0.0094964392483234405517578125 -0.0057273469865322113037109375 0.000441273266915231943130493164062 0.000119906602776609361171722412109 -5.6331209634663537144660949707e-05 -7.89492423791671171784400939941e-06
1534367461.80000209808349609375 0.05000019073486328125 -0.0045731817372143268585205078125 -0.004602105356752872467041015625 0.00132832501549273729324340820312 0.000150061954627744853496551513672 -1.8710106814978644251823425293e-05 -2.32428028539288789033889770508e-05
1534367461.85014390945434570312 0.050141811370849609375 -0.00572176091372966766357421875 -0.00164618843700736761093139648438 -0.000780825328547507524490356445312 -0.000240983659750781953334808349609 -0.000376958778360858559608459472656 5.51042103325016796588897705078e-05
1534367461.90000295639038085938 0.04985904693603515625 -0.027795113623142242431640625 0.01684026420116424560546875 -0.0685503780841827392578125 -8.44863025122322142124176025391e-05 -0.000191651211935095489025115966797 -7.66659832152072340250015258789e-06
1534367461.95000600814819335938 0.0500030517578125 -0.0434280000627040863037109375 0.03322638571262359619140625 -0.122305460274219512939453125 -0.000140676798764616250991821289062 -0.000212999191717244684696197509766 -0.00044494424946606159210205078125
1534367462.00000905990600585938 0.0500030517578125 -0.0442385487258434295654296875 0.038181103765964508056640625 -0.143455982208251953125 -2.74639769486384466290473937988e-05 0.000626329914666712284088134765625 -0.0003296472132205963134765625
1534367462.05000090599060058594 0.0499918460845947265625 -0.0345949642360210418701171875 0.0313349924981594085693359375 -0.13161499798297882080078125 0.000547470117453485727310180664062 0.000550491793546825647354125976562 -0.000323628250043839216232299804688
1534367462.10002398490905761719 0.05002307891845703125 -0.0322532020509243011474609375 0.02001202292740345001220703125 -0.114010967314243316650390625 -0.000138119212351739406585693359375 0.000261527457041665911674499511719 0.00020345184020698070526123046875
1534367462.15000009536743164062 0.0499761104583740234375 -0.0279603935778141021728515625 0.0211548022925853729248046875 -0.09288640320301055908203125 0.000192374733160249888896942138672 9.04467888176441192626953125e-05 0.000235594925470650196075439453125
1534367462.20017004013061523438 0.05016994476318359375 -0.01691908575594425201416015625 0.012743155471980571746826171875 -0.073505677282810211181640625 0.000188187696039676666259765625 0.000136941409436985850334167480469 -3.80567616957705467939376831055e-05
1534367462.25000095367431640625 0.049830913543701171875 -0.0189522393047809600830078125 0.0061876862309873104095458984375 -0.06439737975597381591796875 0.00034968019463121891021728515625 -0.000339992839144542813301086425781 -4.52547974418848752975463867188e-05
1534367462.3000030517578125 0.05000209808349609375 -0.00796051323413848876953125 0.00190712360199540853500366210938 -0.056550405919551849365234375 -0.000193492174730636179447174072266 0.0002896138466894626617431640625 0.000231207624892704188823699951172
1534367462.35000109672546386719 0.0499980449676513671875 -0.0061603747308254241943359375 0.000896816083695739507675170898438 -0.0375399924814701080322265625 8.60666041262447834014892578125e-05 0.000863900466356426477432250976562 -0.000205302450922317802906036376953
1534367462.40000200271606445312 0.0500009059906005859375 -0.0058182557113468647003173828125 0.001637409441173076629638671875 -0.017723463475704193115234375 0.000198976078536361455917358398438 0.000109197950223460793495178222656 -0.000110408356704283505678176879883
1534367462.45004510879516601562 0.0500431060791015625 -0.006450541317462921142578125 -0.0071980394423007965087890625 -0.007504706270992755889892578125 0.000273506651865318417549133300781 5.37151172466110438108444213867e-05 0.000262926652794703841209411621094
1534367462.50000309944152832031 0.0499579906463623046875 0.00213134475052356719970703125 -0.00778780691325664520263671875 -0.007624755613505840301513671875 -0.000328649097355082631111145019531 0.000289788382360711693763732910156 0.000205644697416573762893676757812
1534367462.55019307136535644531 0.050189971923828125 0.00186643586494028568267822265625 -0.007296540774405002593994140625 -0.013939642347395420074462890625 0.00048058456741273403167724609375 0.000249407195951789617538452148438 -0.000527569209225475788116455078125
1534367462.60000205039978027344 0.049808979034423828125 -0.007004980929195880889892578125 -0.009247508831322193145751953125 -0.01079230196774005889892578125 0.000536007690243422985076904296875 -2.8692442356259562075138092041e-05 0.000428599858423694968223571777344
1534367462.65000009536743164062 0.0499980449676513671875 -0.00059593212790787220001220703125 -0.0072184647433459758758544921875 -0.00522919557988643646240234375 -0.00034990231506526470184326171875 -6.09842281846795231103897094727e-05 -3.7352368963183835148811340332e-05
1534367462.70000290870666503906 0.0500028133392333984375 -0.0029769525863230228424072265625 0.00235172291286289691925048828125 -0.01159133948385715484619140625 2.43872655119048431515693664551e-05 0.000212591708987019956111907958984 -0.000314079399686306715011596679688
1534367462.75000095367431640625 0.0499980449676513671875 0.00374942342750728130340576171875 -0.0056785061024129390716552734375 -0.008694159798324108123779296875 -0.000284991314401850104331970214844 0.000252818426815792918205261230469 0.000110288150608539581298828125
1534367462.80007100105285644531 0.0500700473785400390625 0.000299968000035732984542846679688 -0.005738991312682628631591796875 -0.010862232185900211334228515625 -7.67721139709465205669403076172e-05 -0.000141748780151829123497009277344 6.78601136314682662487030029297e-05
1534367462.84999990463256835938 0.0499289035797119140625 -0.00221595354378223419189453125 -0.00248738448135554790496826171875 -0.00641441531479358673095703125 0.000132307235617190599441528320312 -0.000645300431642681360244750976562 -0.000362479215255007147789001464844
1534367462.900218963623046875 0.050219058990478515625 0.006028115749359130859375 -0.0075120679102838039398193359375 -0.00289717875421047210693359375 -2.02410683414200320839881896973e-05 0.000309306953568011522293090820312 -0.000277825893135741353034973144531
1534367462.95000100135803222656 0.0497820377349853515625 -0.001755289733409881591796875 -0.00435331650078296661376953125 -0.008123931474983692169189453125 0.000380474783014506101608276367188 0.000633292947895824909210205078125 -0.000136724294861778616905212402344
1534367463.00001001358032226562 0.0500090122222900390625 0.002327143214643001556396484375 -0.0047032958827912807464599609375 0.000893728865776211023330688476562 -0.00017613358795642852783203125 0.000229155193665064871311187744141 0.000375073257600888609886169433594
1534367463.05000090599060058594 0.0499908924102783203125 0.0044672824442386627197265625 -0.0069049294106662273406982421875 0.00279480940662324428558349609375 7.09005980752408504486083984375e-05 7.23759294487535953521728515625e-05 -3.69924455299042165279388427734e-05
1534367463.10000205039978027344 0.0500011444091796875 0.00825732760131359100341796875 -0.013477896340191364288330078125 0.0072724656201899051666259765625 -4.63470714748837053775787353516e-05 0.0003834776580333709716796875 -3.30217444570735096931457519531e-05
1534367463.150096893310546875 0.0500948429107666015625 0.008276351727545261383056640625 -0.017080105841159820556640625 0.000416162103647366166114807128906 0.000303715729387477040290832519531 -0.000289543269900605082511901855469 0.000101094075944274663925170898438
1534367463.20000195503234863281 0.0499050617218017578125 -0.00138461147435009479522705078125 -0.008894414640963077545166015625 0.007834994234144687652587890625 -2.68474414042429998517036437988e-05 -4.72061146865598857402801513672e-05 -0.000360925041604787111282348632812
1534367463.25023198127746582031 0.0502300262451171875 0.0051234974525868892669677734375 -0.011149488389492034912109375 0.007250509224832057952880859375 -0.000295613135676831007003784179688 0.000223332390305586159229278564453 -0.000377900229068472981452941894531
1534367463.30000209808349609375 0.0497701168060302734375 0.00187313556671142578125 -0.0096666403114795684814453125 0.00254025845788419246673583984375 2.79461219179211184382438659668e-05 1.1408747923269402235746383667e-05 0.000185510987648740410804748535156
1534367463.35000205039978027344 0.0499999523162841796875 0.008460101671516895294189453125 -0.010551556013524532318115234375 0.01721972413361072540283203125 -0.000475479115266352891921997070312 -0.000161467265570536255836486816406 0.000251089979428797960281372070312
1534367463.40000200271606445312 0.0499999523162841796875 0.008826515637338161468505859375 -0.012150420807301998138427734375 0.010349175892770290374755859375 -0.000219512541661970317363739013672 7.48584861867129802703857421875e-05 1.94514050235738977789878845215e-05
1534367463.45000100135803222656 0.0499989986419677734375 0.0042154877446591854095458984375 -0.0068105715326964855194091796875 0.01852328516542911529541015625 0.00011798529158113524317741394043 -6.54125105938874185085296630859e-05 -0.000234055391047149896621704101562
1534367463.50011897087097167969 0.050117969512939453125 0.0073390952311456203460693359375 -0.014383497647941112518310546875 0.01879430375993251800537109375 -0.00021626241505146026611328125 -8.38046908029355108737945556641e-05 0.000194215099327266216278076171875
1534367463.54999995231628417969 0.0498809814453125 -0.00156423926819115877151489257812 -0.0039655859582126140594482421875 0.02060794830322265625 0.000199616537429392337799072265625 -0.000275275262538343667984008789062 6.73805479891598224639892578125e-05
1534367463.60002398490905761719 0.0500240325927734375 0.005021520890295505523681640625 -0.009817042388021945953369140625 0.025420017540454864501953125 -7.37813970772549510002136230469e-05 -0.000642006343696266412734985351562 -2.8728029519697884097695350647e-06
1534367463.65000104904174804688 0.0499770641326904296875 0.00160374678671360015869140625 -0.01139654405415058135986328125 0.02188670076429843902587890625 0.0001414339058101177215576171875 -0.000461297226138412952423095703125 -7.08265579305589199066162109375e-05
1534367463.70000195503234863281 0.0500009059906005859375 -0.00316666509024798870086669921875 -0.011438019573688507080078125 0.01849338598549365997314453125 4.11068504035938531160354614258e-05 0.000498001289088279008865356445312 -7.95708183431997895240783691406e-06
1534367463.7500019073486328125 0.0499999523162841796875 0.000859075051266700029373168945312 -0.01547613926231861114501953125 0.01935227215290069580078125 -7.36684087314642965793609619141e-05 2.84175093838712200522422790527e-05 -0.000179717026185244321823120117188
1534367463.80000209808349609375 0.05000019073486328125 -0.00188875303138047456741333007812 -0.00523026287555694580078125 0.017441801726818084716796875 0.000306640315102413296699523925781 0.000298971339361742138862609863281 -0.000433593697380274534225463867188
1534367463.85014200210571289062 0.050139904022216796875 0.00130547967273741960525512695312 -0.01524830423295497894287109375 0.01734503172338008880615234375 -0.000360015605110675096511840820312 -0.000101991288829594850540161132812 -8.54786503623472526669502258301e-06
1534367463.90000295639038085938 0.04986095428466796875 -0.003776232711970806121826171875 -0.006863462738692760467529296875 0.01444510929286479949951171875 0.000281955493846908211708068847656 0.000269725074758753180503845214844 -0.00037005753256380558013916015625
1534367463.95000696182250976562 0.05000400543212890625 0.0067927264608442783355712890625 -0.0081052370369434356689453125 0.0215303897857666015625 -0.000228626406169496476650238037109 7.83042269176803529262542724609e-05 0.000305016554193571209907531738281
1534367464.00000905990600585938 0.05000209808349609375 0.0025358498096466064453125 -0.008093397133052349090576171875 0.01976279914379119873046875 0.000331971707055345177650451660156 2.61529530689585953950881958008e-05 -0.000289673014776781201362609863281
1534367464.05000090599060058594 0.0499918460845947265625 -0.0032152193598449230194091796875 -0.0009244750253856182098388671875 0.021936021745204925537109375 0.000143284458317793905735015869141 -0.00068705412559211254119873046875 -0.000138400384457781910896301269531
1534367464.10001993179321289062 0.0500190258026123046875 0.0080044828355312347412109375 -0.008912009187042713165283203125 0.0157222039997577667236328125 0.000341767823556438088417053222656 0.000177508292836137115955352783203 0.000232225618674419820308685302734
1534367464.15000104904174804688 0.04998111724853515625 0.005499643273651599884033203125 -0.008558663539588451385498046875 0.01998795568943023681640625 -0.0003891400992870330810546875 0.000306828034808859229087829589844 0.000169787977938540279865264892578
1534367464.20016193389892578125 0.050160884857177734375 0.0073641133494675159454345703125 -0.006082271225750446319580078125 0.01946798525750637054443359375 -0.000176840971107594668865203857422 -0.000158893817570060491561889648438 -4.33467648690566420555114746094e-05
1534367464.25 0.04983806610107421875 0.0053528775461018085479736328125 -0.00550791062414646148681640625 0.02367818541824817657470703125 -0.000329070637235417962074279785156 -8.10621859272941946983337402344e-05 0.000260227447142824530601501464844
1534367464.30000400543212890625 0.05000400543212890625 -0.00271136127412319183349609375 -0.009254678152501583099365234375 0.014966250397264957427978515625 -0.000423984252847731113433837890625 -0.000208812751225195825099945068359 0.00040510506369173526763916015625
1534367464.35000205039978027344 0.0499980449676513671875 0.00177714682649821043014526367188 -0.011761476285755634307861328125 0.01797177083790302276611328125 0.000265296926954761147499084472656 -0.000348696077708154916763305664062 -0.000153450950165279209613800048828
1534367464.40000200271606445312 0.0499999523162841796875 -0.00350583414547145366668701171875 -0.006891169585287570953369140625 0.014212251640856266021728515625 -0.000215429492527619004249572753906 -0.000200668291654437780380249023438 0.000309131137328222393989562988281
1534367464.45004296302795410156 0.0500409603118896484375 -0.0010303105227649211883544921875 -0.009863353334367275238037109375 0.01988568715751171112060546875 0.000364824023563414812088012695312 0.000208931480301544070243835449219 6.24796011834405362606048583984e-05
1534367464.5000019073486328125 0.0499589443206787109375 -0.0013380083255469799041748046875 -0.00201599462889134883880615234375 0.01574489660561084747314453125 0.000561197346542030572891235351562 -0.000178695481736212968826293945312 0.000108302978333085775375366210938
1534367464.550189971923828125 0.0501880645751953125 0.000434665562352165579795837402344 -0.007970985956490039825439453125 0.02108729444444179534912109375 6.15934768575243651866912841797e-05 0.0004174015484750270843505859375 0.000364442879799753427505493164062
1534367464.60000205039978027344 0.0498120784759521484375 -0.0043646055273711681365966796875 -0.009143236093223094940185546875 0.02296167053282260894775390625 0.00047612166963517665863037109375 0.000105645005533006042242050170898 -0.000105215978692285716533660888672
1534367464.65000104904174804688 0.0499989986419677734375 -0.00080159236676990985870361328125 -0.0047813956625759601593017578125 0.00296777416951954364776611328125 0.00064927269704639911651611328125 -0.000149529674672521650791168212891 -0.000662553065922111272811889648438
1534367464.70000290870666503906 0.0500018596649169921875 -0.00110952614340931177139282226562 0.000989569234661757946014404296875 0.039833955466747283935546875 -0.000684352649841457605361938476562 0.000213862236705608665943145751953 -0.000273825455224141478538513183594
1534367464.7500019073486328125 0.0499989986419677734375 -0.0011571967042982578277587890625 -0.008411728776991367340087890625 0.002910502254962921142578125 -0.00012918957509100437164306640625 -0.000141943601192906498908996582031 -4.64008044218644499778747558594e-05
1534367464.800067901611328125 0.0500659942626953125 -0.009354294277727603912353515625 -0.0044503496028482913970947265625 0.014733898453414440155029296875 0.000330657494487240910530090332031 -0.000278377090580761432647705078125 0.000275301339570432901382446289062
1534367464.85000109672546386719 0.0499331951141357421875 0.00339367869310081005096435546875 0.0044053853489458560943603515625 0.0254994221031665802001953125 0.000262532441411167383193969726562 -0.000266201386693865060806274414062 0.000189815240446478128433227539062
1534367464.9002170562744140625 0.0502159595489501953125 0.00176200061105191707611083984375 0.014438115060329437255859375 -0.00152350624557584524154663085938 0.000528005941305309534072875976562 0.0007771993987262248992919921875 -0.000785685144364833831787109375
1534367464.95000100135803222656 0.0497839450836181640625 -0.012326450087130069732666015625 -0.0060194884426891803741455078125 0.0370718352496623992919921875 0.000677376461680978536605834960938 0.000223009861656464636325836181641 2.78455718216719105839729309082e-05
1534367465.00001001358032226562 0.0500090122222900390625 0.004911237396299839019775390625 -0.0125055648386478424072265625 0.03986187279224395751953125 0.00176397594623267650604248046875 0.000646856788080185651779174804688 -0.000503764196764677762985229492188
1534367465.04999995231628417969 0.0499899387359619140625 0.01880665682256221771240234375 -0.0225807316601276397705078125 0.007475898601114749908447265625 0.0026003695093095302581787109375 0.000893989228643476963043212890625 -0.00109904410783201456069946289062
1534367465.10000395774841308594 0.05000400543212890625 -0.0466490946710109710693359375 -0.0314131081104278564453125 0.0402115881443023681640625 0.0041028256528079509735107421875 -0.000253479433013126254081726074219 0.000409672298701480031013488769531
1534367465.15009093284606933594 0.05008697509765625 0.01290805637836456298828125 -0.012386766262352466583251953125 -0.0035635964013636112213134765625 0.003992117010056972503662109375 0.0011087651364505290985107421875 0.00267530954442918300628662109375
1534367465.20000195503234863281 0.049911022186279296875 0.02816259860992431640625 0.02290877513587474822998046875 0.012506497092545032501220703125 0.0029677837155759334564208984375 -0.0002979976125061511993408203125 -0.000255577440839260816574096679688
1534367465.25023198127746582031 0.0502300262451171875 -0.0082101412117481231689453125 0.008133026771247386932373046875 0.0051608397625386714935302734375 0.000949846988078206777572631835938 -0.00106719101313501596450805664062 -0.00259348819963634014129638671875
1534367465.3000030517578125 0.0497710704803466796875 -0.01997724361717700958251953125 -0.0200432874262332916259765625 0.0106084458529949188232421875 0.000318658625474199652671813964844 -0.000120560209325049072504043579102 -0.00102242711000144481658935546875
1534367465.35000205039978027344 0.0499989986419677734375 -0.003952127881348133087158203125 -0.013461445458233356475830078125 0.029606871306896209716796875 0.00287197879515588283538818359375 0.000469606864498928189277648925781 0.00150402798317372798919677734375
1534367465.40000200271606445312 0.0499999523162841796875 0.01921206153929233551025390625 0.02028852887451648712158203125 0.015302122570574283599853515625 0.00145356392022222280502319335938 -1.05626722870511002838611602783e-05 0.000435946130892261862754821777344
1534367465.45000100135803222656 0.0499989986419677734375 1.53013606905005872249603271484e-05 0.00669778697192668914794921875 0.038248740136623382568359375 0.0025300807319581508636474609375 -0.0014148610644042491912841796875 -0.001479527913033962249755859375
1534367465.50012302398681640625 0.0501220226287841796875 -0.02562107704579830169677734375 -0.005330638028681278228759765625 0.00167506816796958446502685546875 0.00347984768450260162353515625 -0.000440158561104908585548400878906 -0.000905027205590158700942993164062
1534367465.54999995231628417969 0.0498769283294677734375 0.01284249313175678253173828125 -0.0057569406926631927490234375 -0.0045463670976459980010986328125 0.00220207520760595798492431640625 0.000737680180463939905166625976562 0.00113620201591402292251586914062
1534367465.60002303123474121094 0.05002307891845703125 0.008802133612334728240966796875 -0.006126237101852893829345703125 0.015670202672481536865234375 0.00053915404714643955230712890625 -0.000589592789765447378158569335938 -0.000272709701675921678543090820312
1534367465.65000104904174804688 0.0499780178070068359375 -0.016503892838954925537109375 -0.0020286426879465579986572265625 0.0145170353353023529052734375 -0.000223632014240138232707977294922 -0.000486762350192293524742126464844 -0.000717880378942936658859252929688
1534367465.70000195503234863281 0.0500009059906005859375 -0.0173523463308811187744140625 0.00684394128620624542236328125 0.02876441180706024169921875 0.001276548020541667938232421875 0.000101535952126141637563705444336 0.000476960733067244291305541992188
1534367465.7500019073486328125 0.0499999523162841796875 -0.005744093097746372222900390625 0.0184949077665805816650390625 0.006416463293135166168212890625 0.000838185660541057586669921875 0.00186451408080756664276123046875 0.00117723678704351186752319335938
1534367465.80000209808349609375 0.05000019073486328125 0.02145879901945590972900390625 0.0155202336609363555908203125 0.016975820064544677734375 -0.000448912003776058554649353027344 -8.77150960150174796581268310547e-05 -0.000419924850575625896453857421875
1534367465.85014009475708007812 0.050137996673583984375 0.003877197392284870147705078125 -0.005805693566799163818359375 0.01379008777439594268798828125 -0.000291408912744373083114624023438 -0.000908377289306372404098510742188 -0.00122534646652638912200927734375
1534367465.90000295639038085938 0.04986286163330078125 -0.0178049020469188690185546875 -0.018317826092243194580078125 0.01837760396301746368408203125 -0.000247920281253755092620849609375 -0.00151557219214737415313720703125 0.000341766251949593424797058105469
1534367465.95000100135803222656 0.0499980449676513671875 0.0031266114674508571624755859375 -0.0131809450685977935791015625 0.0277699045836925506591796875 0.000173015665495768189430236816406 -0.000257484614849090576171875 0.000378129567252472043037414550781
1534367466.00001001358032226562 0.0500090122222900390625 0.00118109013419598340988159179688 -0.012345708906650543212890625 0.009833879768848419189453125 9.13310868781991302967071533203e-05 0.000384304003091529011726379394531 -0.000647325126919895410537719726562
1534367466.04999995231628417969 0.0499899387359619140625 -0.00444374419748783111572265625 0.000747889629565179347991943359375 0.01982448063790798187255859375 -7.16318318154662847518920898438e-05 -0.000303081178572028875350952148438 -0.000354483752744272351264953613281
1534367466.10001897811889648438 0.0500190258026123046875 -0.009234904311597347259521484375 0.00153342878911644220352172851562 0.01154414378106594085693359375 -0.000366020103683695197105407714844 4.26618498750030994415283203125e-05 0.000810480967629700899124145507812
1534367466.15000104904174804688 0.0499820709228515625 0.0031361379660665988922119140625 0.0056749121285974979400634765625 0.00307805440388619899749755859375 0.000385667750379070639610290527344 -0.00027615041472017765045166015625 -0.000138643386890180408954620361328
1534367466.20016694068908691406 0.0501658916473388671875 0.000237735614064149558544158935547 -0.008835487067699432373046875 0.01999358832836151123046875 -0.000836765917483717203140258789062 -0.000819921784568578004837036132812 -0.00025847484357655048370361328125
1534367466.25 0.0498330593109130859375 -0.00903949700295925140380859375 -0.013776869513094425201416015625 0.01473997719585895538330078125 -0.00025757215917110443115234375 -0.000462702068034559488296508789062 6.36501063127070665359497070312e-05
1534367466.30000400543212890625 0.05000400543212890625 -0.00831466354429721832275390625 -0.011490085162222385406494140625 0.0155307911336421966552734375 0.000114650611067190766334533691406 0.000188796693691983819007873535156 0.000353972864104434847831726074219
1534367466.35000205039978027344 0.0499980449676513671875 0.00874561257660388946533203125 -0.009043437428772449493408203125 0.0177346803247928619384765625 0.000333760486682876944541931152344 0.000249565317062661051750183105469 -0.000151190601172856986522674560547
1534367466.40000200271606445312 0.0499999523162841796875 -0.01370145194232463836669921875 0.00191428477410227060317993164062 0.0041770040988922119140625 -4.67318168375641107559204101562e-05 -9.85490041784942150115966796875e-05 -0.000468432903289794921875
1534367466.45004200935363769531 0.0500400066375732421875 -0.004456992261111736297607421875 0.0037934272550046443939208984375 0.0195839293301105499267578125 -7.63897696742787957191467285156e-05 -0.000118278680020011961460113525391 0.00104351271875202655792236328125
1534367466.50000309944152832031 0.049961090087890625 0.010085557587444782257080078125 0.0099597014486789703369140625 0.01424375735223293304443359375 0.000513005419634282588958740234375 -0.000767079240176826715469360351562 0.000376096490072086453437805175781
1534367466.55018901824951171875 0.0501859188079833984375 -0.0110418610274791717529296875 0.000744489545468240976333618164062 0.010083382017910480499267578125 0.000466900033643469214439392089844 -0.000800851907115429639816284179688 -0.000900348997674882411956787109375
1534367466.60000300407409667969 0.0498139858245849609375 -0.0213900618255138397216796875 -0.010872987098991870880126953125 0.02083650417625904083251953125 0.000147420840221457183361053466797 0.00061127333901822566986083984375 -0.00060868612490594387054443359375
1534367466.65000009536743164062 0.0499970912933349609375 -0.00530936010181903839111328125 -0.00176296313293278217315673828125 0.00348119740374386310577392578125 0.00052129966206848621368408203125 0.000664992840029299259185791015625 0.000620385340880602598190307617188
1534367466.70000290870666503906 0.0500028133392333984375 0.0024298974312841892242431640625 0.00120198098011314868927001953125 0.01437737233936786651611328125 -0.000279295840300619602203369140625 0.00036379438824951648712158203125 0.000308454444166272878646850585938
1534367466.75000095367431640625 0.0499980449676513671875 -0.004430092871189117431640625 -0.003923964686691761016845703125 0.02140676788985729217529296875 0.000964704609941691160202026367188 -0.000607517198659479618072509765625 -0.00070684333331882953643798828125
1534367466.80006909370422363281 0.0500681400299072265625 -0.01782424561679363250732421875 -0.00188853347208350896835327148438 0.0054043806158006191253662109375 0.000332702242303639650344848632812 0.000168208687682636082172393798828 -8.12501675682142376899719238281e-05
1534367466.85000109672546386719 0.049932003021240234375 0.00318417674861848354339599609375 -0.0048073236830532550811767578125 0.01849779300391674041748046875 -0.000612896110396832227706909179688 3.19897044391836971044540405273e-05 0.000454058346804231405258178710938
1534367466.90021610260009765625 0.0502150058746337890625 0.007919413037598133087158203125 0.006838356144726276397705078125 0.01717943139374256134033203125 0.000383045437047258019447326660156 -0.000784681062214076519012451171875 -0.000629871210549026727676391601562
1534367466.95000100135803222656 0.0497848987579345703125 -0.007450629957020282745361328125 -0.00377710792236030101776123046875 0.0174700208008289337158203125 8.61135849845595657825469970703e-05 -0.000156474357936531305313110351562 -0.00111362128518521785736083984375
1534367467.00001096725463867188 0.0500099658966064453125 -0.01196387968957424163818359375 -0.008194084279239177703857421875 0.012032426893711090087890625 0.001059453003108501434326171875 8.07414544397033751010894775391e-05 0.000330674985889345407485961914062
1534367467.05000090599060058594 0.0499899387359619140625 0.009666331112384796142578125 -0.00111775298137217760086059570312 0.011713127605617046356201171875 0.000103158345154952257871627807617 0.000234005608945153653621673583984 -0.000302877859212458133697509765625
1534367467.10000395774841308594 0.0500030517578125 0.0041813780553638935089111328125 -0.0020569995976984500885009765625 0.029303081333637237548828125 -0.000260743603575974702835083007812 0.000234451857977546751499176025391 -0.000294636818580329418182373046875
1534367467.15008997917175292969 0.05008602142333984375 -0.006986019201576709747314453125 -0.002130837179720401763916015625 0.018760390579700469970703125 0.00110733497422188520431518554688 7.85049269325099885463714599609e-06 -4.57687674497719854116439819336e-05
1534367467.20000195503234863281 0.049911975860595703125 -0.0052751912735402584075927734375 -0.002218049950897693634033203125 -3.56827658833935856819152832031e-05 -0.000131723863887600600719451904297 0.000369709479855373501777648925781 2.3998215965548297390341758728e-06
1534367467.25023007392883300781 0.050228118896484375 -0.00235047354362905025482177734375 -0.00230053137056529521942138671875 0.01564721949398517608642578125 7.73141728132031857967376708984e-05 0.000231274607358500361442565917969 -0.000303285021800547838211059570312
1534367467.3000030517578125 0.0497729778289794921875 -0.0070075984112918376922607421875 -0.0024466211907565593719482421875 0.01768839918076992034912109375 0.000321219122270122170448303222656 0.000221405716729350388050079345703 -1.08355143311200663447380065918e-05
1534367467.35000300407409667969 0.0499999523162841796875 -0.012902754358947277069091796875 -0.0087526924908161163330078125 0.015548233874142169952392578125 0.000597676611505448818206787109375 0.000261400011368095874786376953125 0.000708625477273017168045043945312
1534367467.40000200271606445312 0.0499989986419677734375 0.006986972875893115997314453125 -0.0028187609277665615081787109375 0.0122000910341739654541015625 0.000586759182624518871307373046875 0.00058376393280923366546630859375 0.00100569950882345438003540039062
1534367467.45000100135803222656 0.0499989986419677734375 0.0097561292350292205810546875 -0.003967662341892719268798828125 0.01620644517242908477783203125 -0.000366302469046786427497863769531 0.000184032513061538338661193847656 -0.000405145430704578757286071777344
1534367467.50011706352233886719 0.050116062164306640625 0.00523011572659015655517578125 -0.00137321546208113431930541992188 0.00884966365993022918701171875 0.000347410532413050532341003417969 -0.00094600277952849864959716796875 -0.000967089727055281400680541992188
1534367467.54999995231628417969 0.0498828887939453125 0.00165793683845549821853637695312 -0.000124325102660804986953735351562 -0.0015753838233649730682373046875 -0.000656838878057897090911865234375 -0.0014907238073647022247314453125 -0.000477700756164267659187316894531
1534367467.60002207756042480469 0.050022125244140625 -0.011849134229123592376708984375 0.0140812806785106658935546875 0.015613964758813381195068359375 -0.00222895643673837184906005859375 -0.0009232647716999053955078125 -0.000661292520817369222640991210938
1534367467.65000104904174804688 0.0499789714813232421875 -0.03065510094165802001953125 0.018580056726932525634765625 0.02060109190642833709716796875 -0.00167605758178979158401489257812 0.000349446316249668598175048828125 -0.000236213643802329897880554199219
1534367467.70000195503234863281 0.0500009059906005859375 -0.0155701972544193267822265625 -0.00349030015058815479278564453125 0.01815617270767688751220703125 -0.002037395723164081573486328125 0.00185143004637211561203002929688 0.00086494884453713893890380859375
1534367467.7500019073486328125 0.0499999523162841796875 0.0038025206886231899261474609375 -0.01911995001137256622314453125 -0.000709777523297816514968872070312 -0.00223601167090237140655517578125 0.00249662972055375576019287109375 0.000619100057519972324371337890625
1534367467.80000209808349609375 0.05000019073486328125 0.00310444110073149204254150390625 -0.02060151286423206329345703125 -0.0066910577006638050079345703125 -0.00427949614822864532470703125 0.001448719762265682220458984375 0.000219754918362013995647430419922
1534367467.85014200210571289062 0.050139904022216796875 -0.0024204752407968044281005859375 -0.009718202985823154449462890625 -0.0024353801272809505462646484375 -0.005901467986404895782470703125 0.000961709010880440473556518554688 0.000345105450833216309547424316406
1534367467.90000295639038085938 0.04986095428466796875 0.017278872430324554443359375 0.045306988060474395751953125 -0.0042758882045745849609375 -0.009171213023364543914794921875 -0.0022805347107350826263427734375 0.0006415056996047496795654296875
1534367467.95000195503234863281 0.0499989986419677734375 -0.01759439520537853240966796875 0.011416337452828884124755859375 0.082942306995391845703125 -0.00842427276074886322021484375 -0.002878102473914623260498046875 -0.000712853972800076007843017578125
1534367468.00001001358032226562 0.0500080585479736328125 -0.010876241140067577362060546875 -0.03061127848923206329345703125 0.05153964459896087646484375 0.0029638637788593769073486328125 0.00172949291300028562545776367188 0.00154528324492275714874267578125
1534367468.05000090599060058594 0.0499908924102783203125 0.004737489856779575347900390625 -0.02330121584236621856689453125 -0.0432167015969753265380859375 0.000364472536602988839149475097656 0.00125523621682077646255493164062 0.000524116097949445247650146484375
1534367468.1000270843505859375 0.0500261783599853515625 0.0226165764033794403076171875 -0.043431244790554046630859375 0.05182854831218719482421875 -0.00279494444839656352996826171875 -0.000566958100534975528717041015625 -0.0011673090048134326934814453125
1534367468.15000009536743164062 0.049973011016845703125 -0.01549870334565639495849609375 -0.01354001648724079132080078125 0.010329817421734333038330078125 0.00126872246619313955307006835938 0.000248662836384028196334838867188 -0.000293307297397404909133911132812
1534367468.20016598701477050781 0.0501658916473388671875 -0.009447671473026275634765625 0.009324933402240276336669921875 -0.01862358115613460540771484375 -0.000706382736098021268844604492188 0.000170672239619307219982147216797 0.00153828284237533807754516601562
1534367468.25000095367431640625 0.0498349666595458984375 0.0234642438590526580810546875 0.03513340651988983154296875 0.05563557147979736328125 4.93495062983129173517227172852e-05 -0.000319531449349597096443176269531 9.30630994844250380992889404297e-05
1534367468.3000030517578125 0.05000209808349609375 -0.0042798058129847049713134765625 0.011131103150546550750732421875 -0.014523032121360301971435546875 -0.000290193594992160797119140625 -0.00048062414862215518951416015625 -0.00181757553946226835250854492188
1534367468.35000109672546386719 0.0499980449676513671875 -0.02094365097582340240478515625 -0.011377665214240550994873046875 0.01750938594341278076171875 0.000620180682744830846786499023438 0.0003124810755252838134765625 -9.70698165474459528923034667969e-05
1534367468.40000200271606445312 0.0500009059906005859375 0.009260497987270355224609375 -0.02379739843308925628662109375 0.0161450318992137908935546875 0.000144840771099552512168884277344 0.000214283398236148059368133544922 0.0012105740606784820556640625
1534367468.45005011558532714844 0.0500481128692626953125 0.004642522893846035003662109375 -0.0212689153850078582763671875 -0.01325605623424053192138671875 -0.000659326848108321428298950195312 -0.000222214788664132356643676757812 -0.00100046291481703519821166992188
1534367468.50000309944152832031 0.049952983856201171875 -0.02150340564548969268798828125 -0.006705037318170070648193359375 0.0247479192912578582763671875 0.000344900938216596841812133789062 0.00039989384822547435760498046875 -0.0008713207207620143890380859375
1534367468.5501880645751953125 0.0501849651336669921875 -0.00944556482136249542236328125 0.0084390006959438323974609375 -0.00377313233911991119384765625 -0.000314192875521257519721984863281 0.0007916898466646671295166015625 0.00131443829741328954696655273438
1534367468.60000300407409667969 0.0498149394989013671875 0.008626532740890979766845703125 0.01966321282088756561279296875 0.009412850253283977508544921875 -0.000580212450586259365081787109375 0.000144844292663037776947021484375 0.000389450608054175972938537597656
1534367468.65000009536743164062 0.0499970912933349609375 -0.021707594394683837890625 0.0063644782640039920806884765625 0.007991836406290531158447265625 0.000379929813789203763008117675781 0.000158079783432185649871826171875 -0.000964491220656782388687133789062
1534367468.70000195503234863281 0.0500018596649169921875 -0.02808167599141597747802734375 -0.008213616907596588134765625 -0.0040692496113479137420654296875 -0.000722005090210586786270141601562 0.000408053427236154675483703613281 0.0004530274309217929840087890625
1534367468.7500019073486328125 0.0499999523162841796875 0.00132583978120237588882446289062 -0.01037216745316982269287109375 0.0117142237722873687744140625 0.000210971702472306787967681884766 0.000323438638588413596153259277344 0.000319737155223265290260314941406
1534367468.800067901611328125 0.0500659942626953125 -0.012470810674130916595458984375 -0.0034963660873472690582275390625 -0.0070822373963892459869384765625 0.000729590945411473512649536132812 5.69787471249583177268505096436e-06 8.40204520500265061855316162109e-05
1534367468.85000109672546386719 0.0499331951141357421875 -0.02872879989445209503173828125 0.00053579546511173248291015625 0.0075517236255109310150146484375 -0.000632365408819168806076049804688 -0.00108113384339958429336547851562 1.69788891071220859885215759277e-05
1534367468.90021491050720214844 0.05021381378173828125 -0.01461151801049709320068359375 0.0045334701426327228546142578125 0.00509386323392391204833984375 2.30505538638681173324584960938e-05 0.000323035550536587834358215332031 -0.000127786857774481177330017089844
1534367468.95000100135803222656 0.049786090850830078125 -0.0072276550345122814178466796875 0.0157138593494892120361328125 -0.0101204700767993927001953125 0.000420750002376735210418701171875 0.00019027106463909149169921875 6.61552039673551917076110839844e-05
1534367469.00001096725463867188 0.0500099658966064453125 -0.00319316633976995944976806640625 -0.0073506818152964115142822265625 0.004800987429916858673095703125 -4.89970807393547147512435913086e-05 -0.000367888162145391106605529785156 -0.000264775386312976479530334472656
1534367469.05000090599060058594 0.0499899387359619140625 -0.0170273669064044952392578125 -0.010950491763651371002197265625 -0.000624130479991436004638671875 7.01339376973919570446014404297e-05 -0.000448210048489272594451904296875 4.14629976148717105388641357422e-05
1534367469.10000491142272949219 0.05000400543212890625 -0.011123730801045894622802734375 -0.0046778880059719085693359375 -0.0013550673611462116241455078125 5.34229229742777533829212188721e-06 0.00028581521473824977874755859375 0.000833375204820185899734497070312
1534367469.15009999275207519531 0.050095081329345703125 0.00271917670033872127532958984375 0.0073601468466222286224365234375 -0.00139112654142081737518310546875 0.000311040115775540471076965332031 -0.000244318536715582013130187988281 0.000201242102775722742080688476562
1534367469.20000290870666503906 0.04990291595458984375 -0.01212342269718647003173828125 0.00159316626377403736114501953125 -0.00218517542816698551177978515625 -0.000111416484287474304437637329102 -0.0007748925127089023590087890625 -0.000883929082192480564117431640625
1534367469.25023102760314941406 0.050228118896484375 -0.01573832891881465911865234375 -0.0059646554291248321533203125 0.00103721104096621274948120117188 -0.000631103466730564832687377929688 -9.17264478630386292934417724609e-05 0.000706602935679256916046142578125
1534367469.30000400543212890625 0.0497729778289794921875 0.000303002976579591631889343261719 0.00101632403675466775894165039062 0.00187027279753237962722778320312 0.000747917511034756898880004882812 0.000265326001681387424468994140625 0.000578852021135389804840087890625
1534367469.35000300407409667969 0.0499989986419677734375 0.00694955326616764068603515625 -0.0051335669122636318206787109375 0.000279166939435526728630065917969 -0.000109820022771600633859634399414 -0.000381174875656142830848693847656 -0.000542202789802104234695434570312
1534367469.40000295639038085938 0.0499999523162841796875 -0.012715247459709644317626953125 -0.000971793080680072307586669921875 0.000427699822466820478439331054688 4.02360310545191168785095214844e-05 -0.000802524911705404520034790039062 0.000137267241370864212512969970703
1534367469.45000195503234863281 0.0499989986419677734375 0.0027818339876830577850341796875 0.000326721405144780874252319335938 0.00269931950606405735015869140625 0.00046983570791780948638916015625 -6.44038736936636269092559814453e-05 0.00068707601167261600494384765625
1534367469.50012707710266113281 0.0501251220703125 0.0071288621984422206878662109375 0.0021174601279199123382568359375 0.0046475869603455066680908203125 0.000447110651293769478797912597656 0.000441120821051299571990966796875 -3.3366446587024256587028503418e-05
1534367469.55000090599060058594 0.049873828887939453125 -0.002285114489495754241943359375 0.0047501064836978912353515625 0.01563727669417858123779296875 -0.00037252833135426044464111328125 9.3039870989741757512092590332e-06 0.000147087019286118447780609130859
1534367469.60002303123474121094 0.050022125244140625 0.00100982526782900094985961914062 0.001721727661788463592529296875 0.013230863027274608612060546875 0.000109835084003861993551254272461 2.56965467997360974550247192383e-05 6.25390603090636432170867919922e-05
1534367469.65000200271606445312 0.0499789714813232421875 0.00292253191582858562469482421875 0.0075015840120613574981689453125 0.0159309990704059600830078125 0.000652723654638975858688354492188 -0.000426369340857490897178649902344 -1.90917544387048110365867614746e-05
1534367469.70000290870666503906 0.0500009059906005859375 0.001779305748641490936279296875 0.000154144552652724087238311767578 0.0211057178676128387451171875 -0.000212163547985255718231201171875 -1.16173969217925332486629486084e-05 -0.000385939521947875618934631347656
1534367469.75000309944152832031 0.05000019073486328125 -0.0020071328617632389068603515625 -0.00968452356755733489990234375 0.00826517678797245025634765625 -0.000253363192314282059669494628906 -0.0004792921245098114013671875 -0.000186729666893370449542999267578
1534367469.8000030517578125 0.0499999523162841796875 -0.004028257913887500762939453125 0.00379867083393037319183349609375 0.0158755071461200714111328125 0.000170772516867145895957946777344 6.03120570303872227668762207031e-05 9.25390995689667761325836181641e-05
1534367469.85014009475708007812 0.050137042999267578125 0.0058601736091077327728271484375 -0.0027437140233814716339111328125 0.014204845763742923736572265625 -0.000234471779549494385719299316406 2.38333068409701809287071228027e-05 0.000242197478655725717544555664062
1534367469.90000391006469726562 0.0498638153076171875 0.004253434948623180389404296875 -0.00051128887571394443511962890625 0.01250697858631610870361328125 0.000324490916682407259941101074219 8.71494776220060884952545166016e-05 -0.0005682813934981822967529296875
1534367469.95000195503234863281 0.0499980449676513671875 -0.0041981185786426067352294921875 0.000445093784946948289871215820312 0.013873492367565631866455078125 -0.000223547860514372587203979492188 -0.00056465878151357173919677734375 -0.000602613203227519989013671875
1534367470.00001096725463867188 0.0500090122222900390625 0.00145566277205944061279296875 -0.0015514115802943706512451171875 0.0199856124818325042724609375 0.000154059860506094992160797119141 0.000232519669225439429283142089844 0.000273235113127157092094421386719
1534367470.05000090599060058594 0.0499899387359619140625 0.01164972223341464996337890625 0.005074945278465747833251953125 0.02047016657888889312744140625 0.000236121151829138398170471191406 0.000230837540584616363048553466797 0.000197469271370209753513336181641
1534367470.10001897811889648438 0.0500180721282958984375 -0.0048825279809534549713134765625 0.00280849658884108066558837890625 0.022440709173679351806640625 9.31453541852533817291259765625e-06 4.80594394502986688166856765747e-07 -7.86284872447140514850616455078e-05
1534367470.15000200271606445312 0.04998302459716796875 0.000604500179179012775421142578125 -0.00539952702820301055908203125 0.0286642499268054962158203125 -0.000133791327243670821189880371094 0.000262307556113228201866149902344 -1.19499609354534186422824859619e-05
1534367470.20016407966613769531 0.0501620769500732421875 0.00299629871733486652374267578125 -0.007932844571769237518310546875 0.02099223993718624114990234375 0.000115929360617883503437042236328 8.67261624080128967761993408203e-05 -5.6164990382967516779899597168e-05
1534367470.2500019073486328125 0.0498378276824951171875 -0.0034345858730375766754150390625 -0.004510548897087574005126953125 0.01516345702111721038818359375 -3.7317910027923062443733215332e-05 -0.000117799325380474328994750976562 0.00011640764569165185093879699707
1534367470.30000400543212890625 0.05000209808349609375 -0.00210529007017612457275390625 -0.00266656815074384212493896484375 0.02023201249539852142333984375 -1.59891769726527854800224304199e-05 -0.000141541851917281746864318847656 0.000129981475765816867351531982422
1534367470.35000205039978027344 0.0499980449676513671875 -0.0067168385721743106842041015625 0.006583116017282009124755859375 0.012568085454404354095458984375 0.000902289582882076501846313476562 -5.61135821044445037841796875e-05 -0.000164397366461344063282012939453
1534367470.40000295639038085938 0.0500009059906005859375 -0.00309096835553646087646484375 -0.0007329354993999004364013671875 0.013615071773529052734375 6.07023685006424784660339355469e-05 1.00490779004758223891258239746e-05 -5.78861508984118700027465820312e-05
1534367470.45004105567932128906 0.0500380992889404296875 -0.0047950851731002330780029296875 -0.0066742994822561740875244140625 0.0103548951447010040283203125 -0.00017561181448400020599365234375 0.000159475370310246944427490234375 -0.000106638341094367206096649169922
1534367470.50000405311584472656 0.0499629974365234375 -0.003574590198695659637451171875 -0.00520832836627960205078125 0.0042711268179118633270263671875 0.000167158810654655098915100097656 0.000408739491831511259078979492188 -0.000300915795378386974334716796875
1534367470.55018901824951171875 0.0501849651336669921875 0.0015615443699061870574951171875 0.001829206943511962890625 0.013350619934499263763427734375 0.000666339299641549587249755859375 -6.37142293271608650684356689453e-05 0.000169503298820927739143371582031
1534367470.60000300407409667969 0.0498139858245849609375 -0.000991491717286407947540283203125 0.00466194190084934234619140625 0.0065038390457630157470703125 -0.000118410716822836548089981079102 -0.000117575116746593266725540161133 -0.000243979622609913349151611328125
1534367470.65000200271606445312 0.0499989986419677734375 -0.00308894994668662548065185546875 0.00240170955657958984375 0.015469022095203399658203125 -0.000345907261362299323081970214844 -0.000149566971231251955032348632812 -0.0005714991129934787750244140625
1534367470.70000410079956054688 0.05000209808349609375 -0.007368710823357105255126953125 -0.00210452266037464141845703125 0.008306232281029224395751953125 0.000140140284202061593532562255859 -0.000176298635778948664665222167969 0.000316840538289397954940795898438
1534367470.75000309944152832031 0.0499989986419677734375 -0.0076727732084691524505615234375 -0.00057844747789204120635986328125 0.01421341858804225921630859375 0.000373607617802917957305908203125 0.000116698109195567667484283447266 3.92180045309942215681076049805e-05
1534367470.80006694793701171875 0.0500638484954833984375 -0.0025204685516655445098876953125 -0.00544948317110538482666015625 0.012066642753779888153076171875 -2.10178604902466759085655212402e-05 -4.33703971793875098228454589844e-05 4.89697158627677708864212036133e-05
1534367470.85000205039978027344 0.0499351024627685546875 -0.011289211921393871307373046875 -0.003433656878769397735595703125 0.012017250992357730865478515625 0.000188513120519928634166717529297 -6.95523558533750474452972412109e-05 -7.24587662261910736560821533203e-05
1534367470.9002170562744140625 0.0502150058746337890625 -0.00251250038854777812957763671875 -0.0046797436662018299102783203125 0.00702313892543315887451171875 -3.70425259461626410484313964844e-05 -0.000142398290336132049560546875 0.000291308737359941005706787109375
1534367470.95000100135803222656 0.0497839450836181640625 -0.0054005295969545841217041015625 0.00131085852626711130142211914062 0.011905238963663578033447265625 0.000515160325448960065841674804688 -0.000688417931087315082550048828125 -0.000284965994069352746009826660156
1534367471.00001192092895507812 0.0500109195709228515625 -0.007140788249671459197998046875 -0.0060073398053646087646484375 0.014922618865966796875 -0.000821411958895623683929443359375 0.000275386089924722909927368164062 7.55066503188572824001312255859e-05
1534367471.05000209808349609375 0.049990177154541015625 -0.0056827892549335956573486328125 -0.00108024035580456256866455078125 0.0066449805162847042083740234375 0.000224525952944532036781311035156 -0.000366301945177838206291198730469 0.000223660914343781769275665283203
1534367471.10000395774841308594 0.0500018596649169921875 -0.0019857999868690967559814453125 -0.00162546720821410417556762695312 0.012055841274559497833251953125 -7.65923905419185757637023925781e-05 0.00030529475770890712738037109375 -0.000146976730320602655410766601562
1534367471.15008997917175292969 0.05008602142333984375 -0.001647391356527805328369140625 -0.000680184515658766031265258789062 0.013302541337907314300537109375 -0.000390234810765832662582397460938 -0.000189445956493727862834930419922 -0.00051684328354895114898681640625
1534367471.20000290870666503906 0.049912929534912109375 0.0058237691409885883331298828125 0.0052013457752764225006103515625 0.011417887173593044281005859375 0.000204173178644850850105285644531 -0.000494328676722943782806396484375 -0.00147828715853393077850341796875
1534367471.25023007392883300781 0.05022716522216796875 0.02935161627829074859619140625 0.000520103203598409891128540039062 0.00784603320062160491943359375 0.000382847123546525835990905761719 -0.0019628447480499744415283203125 -0.005515135824680328369140625
1534367471.30000400543212890625 0.0497739315032958984375 -0.0402935445308685302734375 0.0036655939184129238128662109375 -0.0066000069491565227508544921875 9.71825829765293747186660766602e-06 -0.00121633301023393869400024414062 -0.0071387425996363162994384765625
1534367471.35000300407409667969 0.0499989986419677734375 -0.073782198131084442138671875 -0.041805945336818695068359375 0.02674870193004608154296875 -0.00226565846242010593414306640625 0.00231441040523350238800048828125 0.007181148044764995574951171875
1534367471.40000295639038085938 0.0499999523162841796875 0.107620172202587127685546875 0.00170759565662592649459838867188 0.03031714074313640594482421875 0.00229347660206258296966552734375 0.00116808316670358180999755859375 0.006251883693039417266845703125
1534367471.45000195503234863281 0.0499989986419677734375 -0.0087696276605129241943359375 0.051966764032840728759765625 -0.00277684628963470458984375 -0.0022114380262792110443115234375 -0.00356901786290109157562255859375 -0.0042490814812481403350830078125
1534367471.50011706352233886719 0.050115108489990234375 -0.0779831111431121826171875 -0.02867507748305797576904296875 0.035469003021717071533203125 -0.00122610072139650583267211914062 0.00106172077357769012451171875 -0.003258003853261470794677734375
1534367471.55000090599060058594 0.04988384246826171875 0.02389404363930225372314453125 0.00262003461830317974090576171875 -0.00681204162538051605224609375 0.0011681937612593173980712890625 0.00125842553097754716873168945312 0.00174360128585249185562133789062
1534367471.60002303123474121094 0.050022125244140625 0.0460626594722270965576171875 -0.01180525682866573333740234375 0.000947788183111697435379028320312 0.000804492912720888853073120117188 -0.000495446671266108751296997070312 0.000653684313874691724777221679688
1534367471.65000104904174804688 0.0499780178070068359375 -0.0235003344714641571044921875 -0.011938969604671001434326171875 0.014146725647151470184326171875 -0.0005018315277993679046630859375 -0.00224028597585856914520263671875 -0.000876038451679050922393798828125
1534367471.70000505447387695312 0.05000400543212890625 -0.062241859734058380126953125 -0.0028351671062409877777099609375 0.01600477285683155059814453125 -0.000848275492899119853973388671875 0.000245358649408444762229919433594 0.000360021920641884207725524902344
1534367471.75000095367431640625 0.049995899200439453125 -0.0048568290658295154571533203125 0.0449714474380016326904296875 0.013677277602255344390869140625 0.0023998427204787731170654296875 0.0028071813285350799560546875 0.00362843461334705352783203125
1534367471.8000030517578125 0.05000209808349609375 0.0428884923458099365234375 0.02814600057899951934814453125 -0.0347976423799991607666015625 0.0005008070729672908782958984375 3.07237933157011866569519042969e-05 0.0057688462547957897186279296875
1534367471.85014009475708007812 0.050137042999267578125 0.02706319279968738555908203125 -0.02244946919381618499755859375 0.011273772455751895904541015625 -0.000663677172269672155380249023438 -0.00240562553517520427703857421875 0.00116020848508924245834350585938
1534367471.90000391006469726562 0.0498638153076171875 -0.0439100600779056549072265625 -0.00144767458550631999969482421875 0.019651450216770172119140625 0.0026340358890593051910400390625 -0.00214366801083087921142578125 -0.0053059570491313934326171875
1534367471.95000195503234863281 0.0499980449676513671875 -0.038807965815067291259765625 0.002228765748441219329833984375 0.000248430005740374326705932617188 -0.00153100921306759119033813476562 0.00174650107510387897491455078125 -0.005335400812327861785888671875
1534367472.00001096725463867188 0.0500090122222900390625 0.01776319183409214019775390625 -0.02161208353936672210693359375 0.002919410355389118194580078125 0.000114508584374561905860900878906 0.000723576056770980358123779296875 -0.00268327747471630573272705078125
1534367472.05000090599060058594 0.0499899387359619140625 -0.012732125818729400634765625 -0.0254581309854984283447265625 -0.0118205063045024871826171875 0.000944136234465986490249633789062 -0.000312782300170511007308959960938 0.00289370235987007617950439453125
1534367472.10001897811889648438 0.0500180721282958984375 -0.015152866952121257781982421875 -0.0517707429826259613037109375 3.98072661482729017734527587891e-05 -0.000929747591726481914520263671875 0.00060038059018552303314208984375 0.0076904632151126861572265625
1534367472.15000104904174804688 0.0499820709228515625 0.0340129099786281585693359375 -0.069084085524082183837890625 0.01897421292960643768310546875 0.0013593710027635097503662109375 -0.000311158481054008007049560546875 0.003410673700273036956787109375
1534367472.20016598701477050781 0.0501649379730224609375 0.02689279057085514068603515625 -0.069699265062808990478515625 -0.001251657493412494659423828125 -0.000659099197946488857269287109375 -0.00116874673403799533843994140625 -0.007903891615569591522216796875
1534367472.2500019073486328125 0.0498359203338623046875 -0.0485497675836086273193359375 -0.04237897694110870361328125 0.008742560632526874542236328125 -0.002164664678275585174560546875 -0.000226411080802790820598602294922 -0.009522147476673126220703125
1534367472.30000400543212890625 0.05000209808349609375 -0.060393474996089935302734375 0.0191905014216899871826171875 0.004141322337090969085693359375 -0.00161668169312179088592529296875 0.0025546043179929256439208984375 0.00277249701321125030517578125
1534367472.35000205039978027344 0.0499980449676513671875 0.0394221208989620208740234375 0.08040702342987060546875 -0.000765652686823159456253051757812 0.00150261947419494390487670898438 0.00227651535533368587493896484375 0.011803247965872287750244140625
1534367472.40000295639038085938 0.0500009059906005859375 0.0616155825555324554443359375 0.103870503604412078857421875 0.012864305637776851654052734375 0.000108123465906828641891479492188 -0.00154453946743160486221313476562 0.0045795594342052936553955078125
1534367472.45004105567932128906 0.0500380992889404296875 -0.006356940604746341705322265625 0.0534184537827968597412109375 0.012268438003957271575927734375 -0.00084672868251800537109375 -0.0022113374434411525726318359375 -0.00335767329670488834381103515625
1534367472.50000405311584472656 0.0499629974365234375 -0.023312143981456756591796875 0.038842462003231048583984375 0.005282700061798095703125 0.00085511873476207256317138671875 -0.00077833537943661212921142578125 -0.00261092116124927997589111328125
1534367472.55019211769104003906 0.0501880645751953125 0.0230820812284946441650390625 0.0244121216237545013427734375 0.01391698606312274932861328125 0.000164793746080249547958374023438 -0.000122633340652100741863250732422 -0.0009775259532034397125244140625
1534367472.60000395774841308594 0.049811840057373046875 -0.01276872120797634124755859375 -0.0114915035665035247802734375 0.0131398253142833709716796875 -0.0011513591744005680084228515625 -0.000540374370757490396499633789062 -0.0018918528221547603607177734375
1534367472.65000104904174804688 0.0499970912933349609375 -0.0329616405069828033447265625 -0.02601439319550991058349609375 0.01996800117194652557373046875 -0.000259548018220812082290649414062 0.00155164662282913923263549804688 6.51660884614102542400360107422e-05
1534367472.70000410079956054688 0.0500030517578125 0.011832027696073055267333984375 -0.0298266299068927764892578125 0.013464498333632946014404296875 0.000509314064402133226394653320312 0.0026394254527986049652099609375 0.00141628237906843423843383789062
1534367472.7500019073486328125 0.049997806549072265625 0.06349694728851318359375 -0.047855950891971588134765625 0.01017761789262294769287109375 -3.62990140274632722139358520508e-05 0.000273003766778856515884399414062 -0.00143153476528823375701904296875
1534367472.80006909370422363281 0.0500671863555908203125 0.017773680388927459716796875 -0.099135644733905792236328125 0.01005849428474903106689453125 0.00235560419969260692596435546875 -0.0020598131231963634490966796875 -0.0056002712808549404144287109375
1534367472.85000300407409667969 0.049933910369873046875 -0.051129154860973358154296875 -0.133205831050872802734375 -0.0094016306102275848388671875 0.0012622973881661891937255859375 -0.00211024098098278045654296875 -0.003599393181502819061279296875
1534367472.90021610260009765625 0.0502130985260009765625 -0.0313074477016925811767578125 -0.14099968969821929931640625 0.01786197535693645477294921875 -0.00102894171141088008880615234375 0.000769423379097133874893188476562 0.000917981495149433612823486328125
1534367472.95000100135803222656 0.0497848987579345703125 0.00620103068649768829345703125 -0.1210314929485321044921875 -0.00749032385647296905517578125 0.00283353240229189395904541015625 0.00154190440662205219268798828125 0.0037348740734159946441650390625
1534367473.00001192092895507812 0.0500109195709228515625 0.0334408320486545562744140625 -0.111292660236358642578125 -0.0012446455657482147216796875 0.001439508982002735137939453125 -8.22597066871821880340576171875e-05 0.004154990427196025848388671875
1534367473.05000090599060058594 0.0499889850616455078125 0.03068190626800060272216796875 -0.15774042904376983642578125 0.02109692431986331939697265625 0.005288504995405673980712890625 -0.002437076531350612640380859375 -0.002946755848824977874755859375
1534367473.10000491142272949219 0.05000400543212890625 -0.027388073503971099853515625 -0.1528097093105316162109375 -0.02210201323032379150390625 0.00149452534969896078109741210938 -0.0032895007170736789703369140625 -0.0066004763357341289520263671875
1534367473.15008997917175292969 0.0500850677490234375 -0.0393295101821422576904296875 -0.1033657491207122802734375 -0.01923744194209575653076171875 -0.002614001743495464324951171875 -0.00172609998844563961029052734375 -0.0034975283779203891754150390625
1534367473.20000290870666503906 0.049912929534912109375 -0.00102052267175167798995971679688 -0.062094278633594512939453125 0.019792385399341583251953125 0.000114090231363661587238311767578 -0.000277872197329998016357421875 0.0016117249615490436553955078125
1534367473.25023102760314941406 0.050228118896484375 -0.00854147970676422119140625 -0.04120339453220367431640625 -0.00809319131076335906982421875 0.00247074104845523834228515625 0.00118663685861974954605102539062 -0.000584506138693541288375854492188
1534367473.3000030517578125 0.0497720241546630859375 -0.02610719390213489532470703125 -0.01937350444495677947998046875 -0.02174493856728076934814453125 -0.0058029373176395893096923828125 0.0020523364655673503875732421875 -0.004692100919783115386962890625
1534367473.35000300407409667969 0.0499999523162841796875 0.0312614478170871734619140625 -0.06328402459621429443359375 0.0388680659234523773193359375 -0.00156340538524091243743896484375 0.000319228071020916104316711425781 -0.006781876087188720703125
1534367473.40000295639038085938 0.0499999523162841796875 0.0618303902447223663330078125 -0.060614623129367828369140625 -0.03044821880757808685302734375 0.0054454193450510501861572265625 -0.002392902038991451263427734375 -0.006387944333255290985107421875
1534367473.45000195503234863281 0.0499989986419677734375 -0.005223746411502361297607421875 -0.03180754184722900390625 -0.0232413150370121002197265625 -0.002056169323623180389404296875 -0.0064726634882390499114990234375 -0.00297848577611148357391357421875
1534367473.50011801719665527344 0.050116062164306640625 -0.045239031314849853515625 -0.012703600339591503143310546875 0.0474063120782375335693359375 -0.00367012037895619869232177734375 -0.004774314351379871368408203125 0.00236954190768301486968994140625
1534367473.55000090599060058594 0.0498828887939453125 -0.0355564467608928680419921875 -0.0041744601912796497344970703125 0.006347198970615863800048828125 0.000676477269735187292098999023438 2.97608967230189591646194458008e-05 0.00185491447336971759796142578125
1534367473.60002303123474121094 0.050022125244140625 -0.02821471728384494781494140625 0.032121755182743072509765625 0.02841228060424327850341796875 -0.0010553221218287944793701171875 0.00370417931117117404937744140625 -0.000988146639429032802581787109375
1534367473.65000200271606445312 0.0499789714813232421875 0.01649021916091442108154296875 0.0562989152967929840087890625 0.0320994555950164794921875 -0.003887976519763469696044921875 0.0043404451571404933929443359375 -0.00129763665609061717987060546875
1534367473.70000290870666503906 0.0500009059906005859375 0.036489106714725494384765625 0.032955758273601531982421875 0.0041275923140347003936767578125 0.00290278880856931209564208984375 0.0041070417501032352447509765625 -0.000976175884716212749481201171875
1534367473.75000309944152832031 0.05000019073486328125 0.0212079584598541259765625 0.0398879088461399078369140625 -0.02459949068725109100341796875 0.004821234382688999176025390625 0.00114726903848350048065185546875 0.000286376656731590628623962402344
1534367473.8000030517578125 0.0499999523162841796875 0.0470508150756359100341796875 0.01631907932460308074951171875 0.011743630282580852508544921875 0.000918752863071858882904052734375 -0.00322900596074759960174560546875 0.000235451501794159412384033203125
